STUDYID,USUBJID,SUBJID,SITEID,COUNTRY,DOMAIN,RFSTDTC,RFENDTC,RFXSTDTC,RFXENDTC,RFPENDTC,SCRFDT,FRVDT,DTHDTC,DTHADY,DTHFL,LDDTHELD,LDDTHGR1,DTH30FL,DTHA30FL,DTHDOM,DTHB30FL,REGION1,DMDTC,DMDY,AGE,AGEU,AGEGR1,SEX,RACE,RACEGR1,ETHNIC,SAFFL,ARM,ARMCD,ACTARM,ACTARMCD,TRT01P,TRT01A,TRTSDT,TRTSDTM,TRTSTMF,TRTEDT,TRTEDTM,TRTETMF,EOSSTT,EOSDT,RFICDTC,RANDDT,LSTALVDT,TRTDURD,DTHDT,DTHDTF,DTHCAUS,DTHCGR1,AESEQ,AETERM,AEDECOD,AEBODSYS,AEBDSYCD,AELLT,AELLTCD,AEPTCD,AEHLT,AEHLTCD,AEHLGT,AEHLGTCD,AESOC,AESOCCD,AESTDTC,ASTDT,ASTDTM,ASTDTF,ASTTMF,AEENDTC,AENDT,AENDTM,AENDTF,AENTMF,ASTDY,AESTDY,AENDY,AEENDY,ADURN,ADURU,TRTEMFL,AOCCIFL,AESER,AESDTH,AESLIFE,AESHOSP,AESDISAB,AESCONG,AESEV,ASEV,ASEVN,AEREL,AREL,AEACN,AESPID,AEOUT,AESCAN,AESOD,AEDTC,LDOSEDTM,DOSEON,DOSEU
CDISCPILOT01,01-701-1015,1015,701,USA,AE,2014-01-02,2014-07-02,2014-01-02,2014-07-02,2014-07-02T11:45,,,,,,,,,,,,NA,2013-12-26,-7,63,YEARS,18-64,F,WHITE,White,HISPANIC OR LATINO,Y,Placebo,Pbo,Placebo,Pbo,Placebo,Placebo,2014-01-02,2014-01-02T00:00:00Z,H,2014-07-02,2014-07-02T23:59:59Z,H,COMPLETED,2014-07-02,,2014-01-02,2014-07-02,182,,,,,1,APPLICATION SITE ERYTHEMA,APPLICATION SITE ERYTHEMA,GENERAL DISORDERS AND ADMINISTRATION SITE CONDITIONS,,APPLICATION SITE REDNESS,,,HLT_0617,,HLGT_0152,,GENERAL DISORDERS AND ADMINISTRATION SITE CONDITIONS,,2014-01-03,2014-01-03,2014-01-03T00:00:00Z,,H,,,,,,2,2,,,,,Y,Y,N,N,N,N,N,N,MILD,MILD,1,PROBABLE,PROBABLE,,E07,NOT RECOVERED/NOT RESOLVED,N,N,2014-01-16,2014-01-03T00:00:00Z,0,mg
CDISCPILOT01,01-701-1015,1015,701,USA,AE,2014-01-02,2014-07-02,2014-01-02,2014-07-02,2014-07-02T11:45,,,,,,,,,,,,NA,2013-12-26,-7,63,YEARS,18-64,F,WHITE,White,HISPANIC OR LATINO,Y,Placebo,Pbo,Placebo,Pbo,Placebo,Placebo,2014-01-02,2014-01-02T00:00:00Z,H,2014-07-02,2014-07-02T23:59:59Z,H,COMPLETED,2014-07-02,,2014-01-02,2014-07-02,182,,,,,2,APPLICATION SITE PRURITUS,APPLICATION SITE PRURITUS,GENERAL DISORDERS AND ADMINISTRATION SITE CONDITIONS,,APPLICATION SITE ITCHING,,,HLT_0317,,HLGT_0338,,GENERAL DISORDERS AND ADMINISTRATION SITE CONDITIONS,,2014-01-03,2014-01-03,2014-01-03T00:00:00Z,,H,,,,,,2,2,,,,,Y,,N,N,N,N,N,N,MILD,MILD,1,PROBABLE,PROBABLE,,E08,NOT RECOVERED/NOT RESOLVED,N,N,2014-01-16,2014-01-03T00:00:00Z,0,mg
CDISCPILOT01,01-701-1015,1015,701,USA,AE,2014-01-02,2014-07-02,2014-01-02,2014-07-02,2014-07-02T11:45,,,,,,,,,,,,NA,2013-12-26,-7,63,YEARS,18-64,F,WHITE,White,HISPANIC OR LATINO,Y,Placebo,Pbo,Placebo,Pbo,Placebo,Placebo,2014-01-02,2014-01-02T00:00:00Z,H,2014-07-02,2014-07-02T23:59:59Z,H,COMPLETED,2014-07-02,,2014-01-02,2014-07-02,182,,,,,3,DIARRHOEA,DIARRHOEA,GASTROINTESTINAL DISORDERS,,DIARRHEA,,,HLT_0148,,HLGT_0588,,GASTROINTESTINAL DISORDERS,,2014-01-09,2014-01-09,2014-01-09T00:00:00Z,,H,2014-01-11,2014-01-11,2014-01-11T23:59:59Z,,H,8,8,10,10,3,days,Y,,N,N,N,N,N,N,MILD,MILD,1,REMOTE,REMOTE,,E06,RECOVERED/RESOLVED,N,N,2014-01-16,2014-01-09T00:00:00Z,0,mg
CDISCPILOT01,01-701-1023,1023,701,USA,AE,2012-08-05,2012-09-02,2012-08-05,2012-09-01,2013-02-18,,2013-02-18,,,,,,,,,,NA,2012-07-22,-14,64,YEARS,18-64,M,WHITE,White,HISPANIC OR LATINO,Y,Placebo,Pbo,Placebo,Pbo,Placebo,Placebo,2012-08-05,2012-08-05T00:00:00Z,H,2012-09-01,2012-09-01T23:59:59Z,H,DISCONTINUED,2012-09-02,,2012-08-05,2012-09-02,28,,,,,2,ERYTHEMA,ERYTHEMA,SKIN AND SUBCUTANEOUS TISSUE DISORDERS,,LOCALIZED ERYTHEMA,,,HLT_0284,,HLGT_0192,,SKIN AND SUBCUTANEOUS TISSUE DISORDERS,,2012-08-07,2012-08-07,2012-08-07T00:00:00Z,,H,,,,,,3,3,,,,,Y,Y,N,N,N,N,N,N,MODERATE,MODERATE,2,PROBABLE,PROBABLE,,E09,NOT RECOVERED/NOT RESOLVED,N,N,2012-08-27,2012-08-07T00:00:00Z,0,mg
CDISCPILOT01,01-701-1023,1023,701,USA,AE,2012-08-05,2012-09-02,2012-08-05,2012-09-01,2013-02-18,,2013-02-18,,,,,,,,,,NA,2012-07-22,-14,64,YEARS,18-64,M,WHITE,White,HISPANIC OR LATINO,Y,Placebo,Pbo,Placebo,Pbo,Placebo,Placebo,2012-08-05,2012-08-05T00:00:00Z,H,2012-09-01,2012-09-01T23:59:59Z,H,DISCONTINUED,2012-09-02,,2012-08-05,2012-09-02,28,,,,,1,ERYTHEMA,ERYTHEMA,SKIN AND SUBCUTANEOUS TISSUE DISORDERS,,ERYTHEMA,,,HLT_0284,,HLGT_0192,,SKIN AND SUBCUTANEOUS TISSUE DISORDERS,,2012-08-07,2012-08-07,2012-08-07T00:00:00Z,,H,2012-08-30,2012-08-30,2012-08-30T23:59:59Z,,H,3,3,26,26,24,days,Y,,N,N,N,N,N,N,MILD,MILD,1,POSSIBLE,POSSIBLE,,E08,NOT RECOVERED/NOT RESOLVED,N,N,2012-08-27,2012-08-07T00:00:00Z,0,mg
CDISCPILOT01,01-701-1023,1023,701,USA,AE,2012-08-05,2012-09-02,2012-08-05,2012-09-01,2013-02-18,,2013-02-18,,,,,,,,,,NA,2012-07-22,-14,64,YEARS,18-64,M,WHITE,White,HISPANIC OR LATINO,Y,Placebo,Pbo,Placebo,Pbo,Placebo,Placebo,2012-08-05,2012-08-05T00:00:00Z,H,2012-09-01,2012-09-01T23:59:59Z,H,DISCONTINUED,2012-09-02,,2012-08-05,2012-09-02,28,,,,,4,ERYTHEMA,ERYTHEMA,SKIN AND SUBCUTANEOUS TISSUE DISORDERS,,ERYTHEMA,,,HLT_0284,,HLGT_0192,,SKIN AND SUBCUTANEOUS TISSUE DISORDERS,,2012-08-07,2012-08-07,2012-08-07T00:00:00Z,,H,2012-08-30,2012-08-30,2012-08-30T23:59:59Z,,H,3,3,26,26,24,days,Y,,N,N,N,N,N,N,MILD,MILD,1,POSSIBLE,POSSIBLE,,E08,RECOVERED/RESOLVED,N,N,2012-09-02,2012-08-07T00:00:00Z,0,mg
CDISCPILOT01,01-701-1023,1023,701,USA,AE,2012-08-05,2012-09-02,2012-08-05,2012-09-01,2013-02-18,,2013-02-18,,,,,,,,,,NA,2012-07-22,-14,64,YEARS,18-64,M,WHITE,White,HISPANIC OR LATINO,Y,Placebo,Pbo,Placebo,Pbo,Placebo,Placebo,2012-08-05,2012-08-05T00:00:00Z,H,2012-09-01,2012-09-01T23:59:59Z,H,DISCONTINUED,2012-09-02,,2012-08-05,2012-09-02,28,,,,,3,ATRIOVENTRICULAR BLOCK SECOND DEGREE,ATRIOVENTRICULAR BLOCK SECOND DEGREE,CARDIAC DISORDERS,,AV BLOCK SECOND DEGREE,,,HLT_0415,,HLGT_0086,,CARDIAC DISORDERS,,2012-08-26,2012-08-26,2012-08-26T00:00:00Z,,H,,,,,,22,22,,,,,Y,,N,N,N,N,N,N,MILD,MILD,1,POSSIBLE,POSSIBLE,,E10,NOT RECOVERED/NOT RESOLVED,N,N,2012-08-27,2012-08-26T00:00:00Z,0,mg
CDISCPILOT01,01-701-1028,1028,701,USA,AE,2013-07-19,2014-01-14,2013-07-19,2014-01-14,2014-01-14T11:10,,,,,,,,,,,,NA,2013-07-11,-8,71,YEARS,>64,M,WHITE,White,NOT HISPANIC OR LATINO,Y,Xanomeline High Dose,Xan_Hi,Xanomeline High Dose,Xan_Hi,Xanomeline High Dose,Xanomeline High Dose,2013-07-19,2013-07-19T00:00:00Z,H,2014-01-14,2014-01-14T23:59:59Z,H,COMPLETED,2014-01-14,,2013-07-19,2014-01-14,180,,,,,1,APPLICATION SITE ERYTHEMA,APPLICATION SITE ERYTHEMA,GENERAL DISORDERS AND ADMINISTRATION SITE CONDITIONS,,APPLICATION SITE ERYTHEMA,,,HLT_0617,,HLGT_0152,,GENERAL DISORDERS AND ADMINISTRATION SITE CONDITIONS,,2013-07-21,2013-07-21,2013-07-21T00:00:00Z,,H,,,,,,3,3,,,,,Y,Y,N,N,N,N,N,N,MILD,MILD,1,POSSIBLE,POSSIBLE,,E04,NOT RECOVERED/NOT RESOLVED,N,N,2013-08-01,2013-07-21T00:00:00Z,54,mg
CDISCPILOT01,01-701-1028,1028,701,USA,AE,2013-07-19,2014-01-14,2013-07-19,2014-01-14,2014-01-14T11:10,,,,,,,,,,,,NA,2013-07-11,-8,71,YEARS,>64,M,WHITE,White,NOT HISPANIC OR LATINO,Y,Xanomeline High Dose,Xan_Hi,Xanomeline High Dose,Xan_Hi,Xanomeline High Dose,Xanomeline High Dose,2013-07-19,2013-07-19T00:00:00Z,H,2014-01-14,2014-01-14T23:59:59Z,H,COMPLETED,2014-01-14,,2013-07-19,2014-01-14,180,,,,,2,APPLICATION SITE PRURITUS,APPLICATION SITE PRURITUS,GENERAL DISORDERS AND ADMINISTRATION SITE CONDITIONS,,APPLICATION SITE ITCHING,,,HLT_0317,,HLGT_0338,,GENERAL DISORDERS AND ADMINISTRATION SITE CONDITIONS,,2013-08-08,2013-08-08,2013-08-08T00:00:00Z,,H,,,,,,21,21,,,,,Y,,N,N,N,N,N,N,MILD,MILD,1,PROBABLE,PROBABLE,,E05,NOT RECOVERED/NOT RESOLVED,N,N,2013-08-14,2013-08-01T00:00:00Z,,
CDISCPILOT01,01-701-1034,1034,701,USA,AE,2014-07-01,2014-12-30,2014-07-01,2014-12-30,2014-12-30T09:50,,,,,,,,,,,,NA,2014-06-24,-7,77,YEARS,>64,F,WHITE,White,NOT HISPANIC OR LATINO,Y,Xanomeline High Dose,Xan_Hi,Xanomeline High Dose,Xan_Hi,Xanomeline High Dose,Xanomeline High Dose,2014-07-01,2014-07-01T00:00:00Z,H,2014-12-30,2014-12-30T23:59:59Z,H,COMPLETED,2014-12-30,,2014-07-01,2014-12-30,183,,,,,1,APPLICATION SITE PRURITUS,APPLICATION SITE PRURITUS,GENERAL DISORDERS AND ADMINISTRATION SITE CONDITIONS,,APPLICATION SITE ITCHING,,,HLT_0317,,HLGT_0338,,GENERAL DISORDERS AND ADMINISTRATION SITE CONDITIONS,,2014-08-27,2014-08-27,2014-08-27T00:00:00Z,,H,,,,,,58,58,,,,,Y,Y,N,N,N,N,N,N,MILD,MILD,1,PROBABLE,PROBABLE,,E08,NOT RECOVERED/NOT RESOLVED,N,N,2014-09-25,2014-07-15T00:00:00Z,,
CDISCPILOT01,01-701-1034,1034,701,USA,AE,2014-07-01,2014-12-30,2014-07-01,2014-12-30,2014-12-30T09:50,,,,,,,,,,,,NA,2014-06-24,-7,77,YEARS,>64,F,WHITE,White,NOT HISPANIC OR LATINO,Y,Xanomeline High Dose,Xan_Hi,Xanomeline High Dose,Xan_Hi,Xanomeline High Dose,Xanomeline High Dose,2014-07-01,2014-07-01T00:00:00Z,H,2014-12-30,2014-12-30T23:59:59Z,H,COMPLETED,2014-12-30,,2014-07-01,2014-12-30,183,,,,,2,FATIGUE,FATIGUE,GENERAL DISORDERS AND ADMINISTRATION SITE CONDITIONS,,FATIGUE,,,HLT_0043,,HLGT_0181,,GENERAL DISORDERS AND ADMINISTRATION SITE CONDITIONS,,2014-11-02,2014-11-02,2014-11-02T00:00:00Z,,H,,,,,,125,125,,,,,Y,,N,N,N,N,N,N,MILD,MILD,1,POSSIBLE,POSSIBLE,,E07,NOT RECOVERED/NOT RESOLVED,N,N,2014-11-18,2014-07-15T00:00:00Z,,
CDISCPILOT01,01-701-1047,1047,701,USA,AE,2013-02-12,2013-03-29,2013-02-12,2013-03-09,2013-07-28,,2013-07-28,,,,,,,,,,NA,2013-01-22,-21,85,YEARS,>64,F,WHITE,White,NOT HISPANIC OR LATINO,Y,Placebo,Pbo,Placebo,Pbo,Placebo,Placebo,2013-02-12,2013-02-12T00:00:00Z,H,2013-03-09,2013-03-09T23:59:59Z,H,DISCONTINUED,2013-03-29,,2013-02-12,2013-04-07,26,,,,,1,HIATUS HERNIA,HIATUS HERNIA,GASTROINTESTINAL DISORDERS,,HERNIA HIATAL,,,HLT_0159,,HLGT_0109,,GASTROINTESTINAL DISORDERS,,2013-02-12,2013-02-12,2013-02-12T00:00:00Z,,H,2013-02-12,2013-02-12,2013-02-12T23:59:59Z,,H,1,1,1,1,1,days,Y,Y,N,N,N,N,N,N,MODERATE,MODERATE,2,NONE,NONE,,E06,NOT RECOVERED/NOT RESOLVED,N,N,2013-02-12,2013-02-12T00:00:00Z,0,mg
CDISCPILOT01,01-701-1047,1047,701,USA,AE,2013-02-12,2013-03-29,2013-02-12,2013-03-09,2013-07-28,,2013-07-28,,,,,,,,,,NA,2013-01-22,-21,85,YEARS,>64,F,WHITE,White,NOT HISPANIC OR LATINO,Y,Placebo,Pbo,Placebo,Pbo,Placebo,Placebo,2013-02-12,2013-02-12T00:00:00Z,H,2013-03-09,2013-03-09T23:59:59Z,H,DISCONTINUED,2013-03-29,,2013-02-12,2013-04-07,26,,,,,2,HIATUS HERNIA,HIATUS HERNIA,GASTROINTESTINAL DISORDERS,,HERNIA HIATAL,,,HLT_0159,,HLGT_0109,,GASTROINTESTINAL DISORDERS,,2013-02-12,2013-02-12,2013-02-12T00:00:00Z,,H,2013-02-12,2013-02-12,2013-02-12T23:59:59Z,,H,1,1,1,1,1,days,Y,,N,N,N,N,N,N,MODERATE,MODERATE,2,NONE,NONE,,E06,RECOVERED/RESOLVED,N,N,2013-02-25,2013-02-12T00:00:00Z,0,mg
CDISCPILOT01,01-701-1047,1047,701,USA,AE,2013-02-12,2013-03-29,2013-02-12,2013-03-09,2013-07-28,,2013-07-28,,,,,,,,,,NA,2013-01-22,-21,85,YEARS,>64,F,WHITE,White,NOT HISPANIC OR LATINO,Y,Placebo,Pbo,Placebo,Pbo,Placebo,Placebo,2013-02-12,2013-02-12T00:00:00Z,H,2013-03-09,2013-03-09T23:59:59Z,H,DISCONTINUED,2013-03-29,,2013-02-12,2013-04-07,26,,,,,3,UPPER RESPIRATORY TRACT INFECTION,UPPER RESPIRATORY TRACT INFECTION,INFECTIONS AND INFESTATIONS,,UPPER RESPIRATORY INFECTION,,,HLT_0520,,HLGT_0489,,INFECTIONS AND INFESTATIONS,,2013-03-06,2013-03-06,2013-03-06T00:00:00Z,,H,,,,,,23,23,,,,,Y,,N,N,N,N,N,N,MILD,MILD,1,NONE,NONE,,E08,NOT RECOVERED/NOT RESOLVED,N,N,2013-03-10,2013-03-06T00:00:00Z,0,mg
CDISCPILOT01,01-701-1047,1047,701,USA,AE,2013-02-12,2013-03-29,2013-02-12,2013-03-09,2013-07-28,,2013-07-28,,,,,,,,,,NA,2013-01-22,-21,85,YEARS,>64,F,WHITE,White,NOT HISPANIC OR LATINO,Y,Placebo,Pbo,Placebo,Pbo,Placebo,Placebo,2013-02-12,2013-02-12T00:00:00Z,H,2013-03-09,2013-03-09T23:59:59Z,H,DISCONTINUED,2013-03-29,,2013-02-12,2013-04-07,26,,,,,4,BUNDLE BRANCH BLOCK LEFT,BUNDLE BRANCH BLOCK LEFT,CARDIAC DISORDERS,,LEFT BUNDLE BRANCH BLOCK,,,HLT_0281,,HLGT_0721,,CARDIAC DISORDERS,,2013-03-10,2013-03-10,2013-03-10T00:00:00Z,,H,,,,,,27,27,,,,,Y,,N,N,N,N,N,N,MILD,MILD,1,NONE,NONE,,E09,NOT RECOVERED/NOT RESOLVED,N,N,2013-03-10,2013-03-09T00:00:00Z,,
CDISCPILOT01,01-701-1097,1097,701,USA,AE,2014-01-01,2014-07-09,2014-01-01,2014-07-09,2014-07-09T09:39,,,,,,,,,,,,NA,2013-12-23,-9,68,YEARS,>64,M,WHITE,White,NOT HISPANIC OR LATINO,Y,Xanomeline Low Dose,Xan_Lo,Xanomeline Low Dose,Xan_Lo,Xanomeline Low Dose,Xanomeline Low Dose,2014-01-01,2014-01-01T00:00:00Z,H,2014-07-09,2014-07-09T23:59:59Z,H,COMPLETED,2014-07-09,,2014-01-01,2014-07-09,190,,,,,2,PRURITUS GENERALISED,PRURITUS GENERALISED,SKIN AND SUBCUTANEOUS TISSUE DISORDERS,,GENERALIZED PRURITUS,,,HLT_0123,,HLGT_0689,,SKIN AND SUBCUTANEOUS TISSUE DISORDERS,,2014-02-20,2014-02-20,2014-02-20T00:00:00Z,,H,2014-02-20,2014-02-20,2014-02-20T23:59:59Z,,H,51,51,51,51,1,days,Y,Y,N,N,N,N,N,N,MODERATE,MODERATE,2,POSSIBLE,POSSIBLE,,E05,RECOVERED/RESOLVED,N,N,2014-02-26,2014-02-20T00:00:00Z,54,mg
CDISCPILOT01,01-701-1097,1097,701,USA,AE,2014-01-01,2014-07-09,2014-01-01,2014-07-09,2014-07-09T09:39,,,,,,,,,,,,NA,2013-12-23,-9,68,YEARS,>64,M,WHITE,White,NOT HISPANIC OR LATINO,Y,Xanomeline Low Dose,Xan_Lo,Xanomeline Low Dose,Xan_Lo,Xanomeline Low Dose,Xanomeline Low Dose,2014-01-01,2014-01-01T00:00:00Z,H,2014-07-09,2014-07-09T23:59:59Z,H,COMPLETED,2014-07-09,,2014-01-01,2014-07-09,190,,,,,10,APPLICATION SITE PRURITUS,APPLICATION SITE PRURITUS,GENERAL DISORDERS AND ADMINISTRATION SITE CONDITIONS,,APPLICATION SITE ITCHING,,,HLT_0317,,HLGT_0338,,GENERAL DISORDERS AND ADMINISTRATION SITE CONDITIONS,,2014-02-21,2014-02-21,2014-02-21T00:00:00Z,,H,,,,,,52,52,,,,,Y,,N,N,N,N,N,N,MODERATE,MODERATE,2,POSSIBLE,POSSIBLE,,E06,NOT RECOVERED/NOT RESOLVED,N,N,2014-05-21,2014-02-21T00:00:00Z,54,mg
CDISCPILOT01,01-701-1097,1097,701,USA,AE,2014-01-01,2014-07-09,2014-01-01,2014-07-09,2014-07-09T09:39,,,,,,,,,,,,NA,2013-12-23,-9,68,YEARS,>64,M,WHITE,White,NOT HISPANIC OR LATINO,Y,Xanomeline Low Dose,Xan_Lo,Xanomeline Low Dose,Xan_Lo,Xanomeline Low Dose,Xanomeline Low Dose,2014-01-01,2014-01-01T00:00:00Z,H,2014-07-09,2014-07-09T23:59:59Z,H,COMPLETED,2014-07-09,,2014-01-01,2014-07-09,190,,,,,5,PRURITUS GENERALISED,PRURITUS GENERALISED,SKIN AND SUBCUTANEOUS TISSUE DISORDERS,,GENERALIZED PRURITUS,,,HLT_0123,,HLGT_0689,,SKIN AND SUBCUTANEOUS TISSUE DISORDERS,,2014-03-21,2014-03-21,2014-03-21T00:00:00Z,,H,2014-03-21,2014-03-21,2014-03-21T23:59:59Z,,H,80,80,80,80,1,days,Y,,N,N,N,N,N,N,MODERATE,MODERATE,2,POSSIBLE,POSSIBLE,,E08,RECOVERED/RESOLVED,N,N,2014-03-26,2014-03-21T00:00:00Z,54,mg
CDISCPILOT01,01-701-1097,1097,701,USA,AE,2014-01-01,2014-07-09,2014-01-01,2014-07-09,2014-07-09T09:39,,,,,,,,,,,,NA,2013-12-23,-9,68,YEARS,>64,M,WHITE,White,NOT HISPANIC OR LATINO,Y,Xanomeline Low Dose,Xan_Lo,Xanomeline Low Dose,Xan_Lo,Xanomeline Low Dose,Xanomeline Low Dose,2014-01-01,2014-01-01T00:00:00Z,H,2014-07-09,2014-07-09T23:59:59Z,H,COMPLETED,2014-07-09,,2014-01-01,2014-07-09,190,,,,,6,PRURITUS GENERALISED,PRURITUS GENERALISED,SKIN AND SUBCUTANEOUS TISSUE DISORDERS,,GENERALIZED PRURITUS,,,HLT_0123,,HLGT_0689,,SKIN AND SUBCUTANEOUS TISSUE DISORDERS,,2014-03-31,2014-03-31,2014-03-31T00:00:00Z,,H,2014-03-31,2014-03-31,2014-03-31T23:59:59Z,,H,90,90,90,90,1,days,Y,,N,N,N,N,N,N,MODERATE,MODERATE,2,POSSIBLE,POSSIBLE,,E12,RECOVERED/RESOLVED,N,N,2014-04-23,2014-03-31T00:00:00Z,54,mg
CDISCPILOT01,01-701-1097,1097,701,USA,AE,2014-01-01,2014-07-09,2014-01-01,2014-07-09,2014-07-09T09:39,,,,,,,,,,,,NA,2013-12-23,-9,68,YEARS,>64,M,WHITE,White,NOT HISPANIC OR LATINO,Y,Xanomeline Low Dose,Xan_Lo,Xanomeline Low Dose,Xan_Lo,Xanomeline Low Dose,Xanomeline Low Dose,2014-01-01,2014-01-01T00:00:00Z,H,2014-07-09,2014-07-09T23:59:59Z,H,COMPLETED,2014-07-09,,2014-01-01,2014-07-09,190,,,,,7,PRURITUS GENERALISED,PRURITUS GENERALISED,SKIN AND SUBCUTANEOUS TISSUE DISORDERS,,GENERALIZED PRURITUS,,,HLT_0123,,HLGT_0689,,SKIN AND SUBCUTANEOUS TISSUE DISORDERS,,2014-04-19,2014-04-19,2014-04-19T00:00:00Z,,H,2014-04-20,2014-04-20,2014-04-20T23:59:59Z,,H,109,109,110,110,2,days,Y,,N,N,N,N,N,N,MODERATE,MODERATE,2,POSSIBLE,POSSIBLE,,E09,RECOVERED/RESOLVED,N,N,2014-04-23,2014-04-19T00:00:00Z,54,mg
CDISCPILOT01,01-701-1097,1097,701,USA,AE,2014-01-01,2014-07-09,2014-01-01,2014-07-09,2014-07-09T09:39,,,,,,,,,,,,NA,2013-12-23,-9,68,YEARS,>64,M,WHITE,White,NOT HISPANIC OR LATINO,Y,Xanomeline Low Dose,Xan_Lo,Xanomeline Low Dose,Xan_Lo,Xanomeline Low Dose,Xanomeline Low Dose,2014-01-01,2014-01-01T00:00:00Z,H,2014-07-09,2014-07-09T23:59:59Z,H,COMPLETED,2014-07-09,,2014-01-01,2014-07-09,190,,,,,1,ERYTHEMA,ERYTHEMA,SKIN AND SUBCUTANEOUS TISSUE DISORDERS,,ERYTHEMA,,,HLT_0284,,HLGT_0192,,SKIN AND SUBCUTANEOUS TISSUE DISORDERS,,2014-01-03,2014-01-03,2014-01-03T00:00:00Z,,H,,,,,,3,3,,,,,Y,,N,N,N,N,N,N,MILD,MILD,1,POSSIBLE,POSSIBLE,,E04,NOT RECOVERED/NOT RESOLVED,N,N,2014-01-15,2014-01-03T00:00:00Z,54,mg
CDISCPILOT01,01-701-1097,1097,701,USA,AE,2014-01-01,2014-07-09,2014-01-01,2014-07-09,2014-07-09T09:39,,,,,,,,,,,,NA,2013-12-23,-9,68,YEARS,>64,M,WHITE,White,NOT HISPANIC OR LATINO,Y,Xanomeline Low Dose,Xan_Lo,Xanomeline Low Dose,Xan_Lo,Xanomeline Low Dose,Xanomeline Low Dose,2014-01-01,2014-01-01T00:00:00Z,H,2014-07-09,2014-07-09T23:59:59Z,H,COMPLETED,2014-07-09,,2014-01-01,2014-07-09,190,,,,,3,APPLICATION SITE VESICLES,APPLICATION SITE VESICLES,GENERAL DISORDERS AND ADMINISTRATION SITE CONDITIONS,,APPLICATION SITE BLISTER,,,HLT_0180,,HLGT_0576,,GENERAL DISORDERS AND ADMINISTRATION SITE CONDITIONS,,2014-02-20,2014-02-20,2014-02-20T00:00:00Z,,H,2014-02-22,2014-02-22,2014-02-22T23:59:59Z,,H,51,51,53,53,3,days,Y,,N,N,N,N,N,N,MILD,MILD,1,PROBABLE,PROBABLE,,E07,RECOVERED/RESOLVED,N,N,2014-02-26,2014-02-20T00:00:00Z,54,mg
CDISCPILOT01,01-701-1097,1097,701,USA,AE,2014-01-01,2014-07-09,2014-01-01,2014-07-09,2014-07-09T09:39,,,,,,,,,,,,NA,2013-12-23,-9,68,YEARS,>64,M,WHITE,White,NOT HISPANIC OR LATINO,Y,Xanomeline Low Dose,Xan_Lo,Xanomeline Low Dose,Xan_Lo,Xanomeline Low Dose,Xanomeline Low Dose,2014-01-01,2014-01-01T00:00:00Z,H,2014-07-09,2014-07-09T23:59:59Z,H,COMPLETED,2014-07-09,,2014-01-01,2014-07-09,190,,,,,4,APPLICATION SITE PRURITUS,APPLICATION SITE PRURITUS,GENERAL DISORDERS AND ADMINISTRATION SITE CONDITIONS,,APPLICATION SITE ITCHING,,,HLT_0317,,HLGT_0338,,GENERAL DISORDERS AND ADMINISTRATION SITE CONDITIONS,,2014-02-21,2014-02-21,2014-02-21T00:00:00Z,,H,,,,,,52,52,,,,,Y,,N,N,N,N,N,N,MILD,MILD,1,POSSIBLE,POSSIBLE,,E06,NOT RECOVERED/NOT RESOLVED,N,N,2014-02-26,2014-02-21T00:00:00Z,54,mg
CDISCPILOT01,01-701-1097,1097,701,USA,AE,2014-01-01,2014-07-09,2014-01-01,2014-07-09,2014-07-09T09:39,,,,,,,,,,,,NA,2013-12-23,-9,68,YEARS,>64,M,WHITE,White,NOT HISPANIC OR LATINO,Y,Xanomeline Low Dose,Xan_Lo,Xanomeline Low Dose,Xan_Lo,Xanomeline Low Dose,Xanomeline Low Dose,2014-01-01,2014-01-01T00:00:00Z,H,2014-07-09,2014-07-09T23:59:59Z,H,COMPLETED,2014-07-09,,2014-01-01,2014-07-09,190,,,,,8,PHARYNGOLARYNGEAL PAIN,PHARYNGOLARYNGEAL PAIN,"RESPIRATORY, THORACIC AND MEDIASTINAL DISORDERS",,SORE THROAT,,,HLT_0130,,HLGT_0402,,"RESPIRATORY, THORACIC AND MEDIASTINAL DISORDERS",,2014-04-19,2014-04-19,2014-04-19T00:00:00Z,,H,2014-04-22,2014-04-22,2014-04-22T23:59:59Z,,H,109,109,112,112,4,days,Y,,N,N,N,N,N,N,MILD,MILD,1,NONE,NONE,,E10,RECOVERED/RESOLVED,N,N,2014-04-23,2014-04-19T00:00:00Z,54,mg
CDISCPILOT01,01-701-1097,1097,701,USA,AE,2014-01-01,2014-07-09,2014-01-01,2014-07-09,2014-07-09T09:39,,,,,,,,,,,,NA,2013-12-23,-9,68,YEARS,>64,M,WHITE,White,NOT HISPANIC OR LATINO,Y,Xanomeline Low Dose,Xan_Lo,Xanomeline Low Dose,Xan_Lo,Xanomeline Low Dose,Xanomeline Low Dose,2014-01-01,2014-01-01T00:00:00Z,H,2014-07-09,2014-07-09T23:59:59Z,H,COMPLETED,2014-07-09,,2014-01-01,2014-07-09,190,,,,,9,NASAL CONGESTION,NASAL CONGESTION,"RESPIRATORY, THORACIC AND MEDIASTINAL DISORDERS",,NASAL CONGESTION,,,HLT_0118,,HLGT_0549,,"RESPIRATORY, THORACIC AND MEDIASTINAL DISORDERS",,2014-04-19,2014-04-19,2014-04-19T00:00:00Z,,H,2014-04-22,2014-04-22,2014-04-22T23:59:59Z,,H,109,109,112,112,4,days,Y,,N,N,N,N,N,N,MILD,MILD,1,NONE,NONE,,E11,RECOVERED/RESOLVED,N,N,2014-04-23,2014-04-19T00:00:00Z,54,mg
CDISCPILOT01,01-701-1111,1111,701,USA,AE,2012-09-07,2012-09-17,2012-09-07,2012-09-16,2013-02-22,,2013-02-22,,,,,,,,,,NA,2012-08-25,-13,81,YEARS,>64,F,WHITE,White,NOT HISPANIC OR LATINO,Y,Xanomeline Low Dose,Xan_Lo,Xanomeline Low Dose,Xan_Lo,Xanomeline Low Dose,Xanomeline Low Dose,2012-09-07,2012-09-07T00:00:00Z,H,2012-09-16,2012-09-16T23:59:59Z,H,DISCONTINUED,2012-09-17,,2012-09-07,2012-09-17,10,,,,,7,ARTHRALGIA,ARTHRALGIA,MUSCULOSKELETAL AND CONNECTIVE TISSUE DISORDERS,,GENERALIZED JOINT PAIN,,,HLT_0375,,HLGT_0610,,MUSCULOSKELETAL AND CONNECTIVE TISSUE DISORDERS,,2012-09-13,2012-09-13,2012-09-13T00:00:00Z,,H,,,,,,7,7,,,,,Y,Y,N,N,N,N,N,N,MODERATE,MODERATE,2,NONE,NONE,,E16,NOT RECOVERED/NOT RESOLVED,N,N,2012-09-17,2012-09-13T00:00:00Z,54,mg
CDISCPILOT01,01-701-1111,1111,701,USA,AE,2012-09-07,2012-09-17,2012-09-07,2012-09-16,2013-02-22,,2013-02-22,,,,,,,,,,NA,2012-08-25,-13,81,YEARS,>64,F,WHITE,White,NOT HISPANIC OR LATINO,Y,Xanomeline Low Dose,Xan_Lo,Xanomeline Low Dose,Xan_Lo,Xanomeline Low Dose,Xanomeline Low Dose,2012-09-07,2012-09-07T00:00:00Z,H,2012-09-16,2012-09-16T23:59:59Z,H,DISCONTINUED,2012-09-17,,2012-09-07,2012-09-17,10,,,,,8,CELLULITIS,CELLULITIS,INFECTIONS AND INFESTATIONS,,CELLULITIS OF LEG,,,HLT_0613,,HLGT_0066,,INFECTIONS AND INFESTATIONS,,2012-09-13,2012-09-13,2012-09-13T00:00:00Z,,H,,,,,,7,7,,,,,Y,,N,N,N,N,N,N,MODERATE,MODERATE,2,NONE,NONE,,E17,NOT RECOVERED/NOT RESOLVED,N,N,2012-09-17,2012-09-13T00:00:00Z,54,mg
CDISCPILOT01,01-701-1111,1111,701,USA,AE,2012-09-07,2012-09-17,2012-09-07,2012-09-16,2013-02-22,,2013-02-22,,,,,,,,,,NA,2012-08-25,-13,81,YEARS,>64,F,WHITE,White,NOT HISPANIC OR LATINO,Y,Xanomeline Low Dose,Xan_Lo,Xanomeline Low Dose,Xan_Lo,Xanomeline Low Dose,Xanomeline Low Dose,2012-09-07,2012-09-07T00:00:00Z,H,2012-09-16,2012-09-16T23:59:59Z,H,DISCONTINUED,2012-09-17,,2012-09-07,2012-09-17,10,,,,,6,MICTURITION URGENCY,MICTURITION URGENCY,RENAL AND URINARY DISORDERS,,URINARY URGENCY,,,HLT_0294,,HLGT_0483,,RENAL AND URINARY DISORDERS,,2012-09-07,2012-09-07,2012-09-07T00:00:00Z,,H,,,,,,1,1,,,,,Y,,N,N,N,N,N,N,MILD,MILD,1,NONE,NONE,,E18,NOT RECOVERED/NOT RESOLVED,N,N,2012-09-17,2012-09-07T00:00:00Z,54,mg
CDISCPILOT01,01-701-1115,1115,701,USA,AE,2012-11-30,2013-01-23,2012-11-30,2013-01-23,2013-05-20,,2013-05-20,,,,,,,,,,NA,2012-11-23,-7,84,YEARS,>64,M,WHITE,White,NOT HISPANIC OR LATINO,Y,Xanomeline Low Dose,Xan_Lo,Xanomeline Low Dose,Xan_Lo,Xanomeline Low Dose,Xanomeline Low Dose,2012-11-30,2012-11-30T00:00:00Z,H,2013-01-23,2013-01-23T23:59:59Z,H,DISCONTINUED,2013-01-23,,2012-11-30,2013-01-23,55,,,,,5,APPLICATION SITE ERYTHEMA,APPLICATION SITE ERYTHEMA,GENERAL DISORDERS AND ADMINISTRATION SITE CONDITIONS,,APPLICATION SITE REDNESS,,,HLT_0617,,HLGT_0152,,GENERAL DISORDERS AND ADMINISTRATION SITE CONDITIONS,,2012-12-02,2012-12-02,2012-12-02T00:00:00Z,,H,,,,,,3,3,,,,,Y,Y,N,N,N,N,N,N,MODERATE,MODERATE,2,PROBABLE,PROBABLE,,E09,NOT RECOVERED/NOT RESOLVED,N,N,2013-01-23,2012-12-02T00:00:00Z,54,mg
CDISCPILOT01,01-701-1115,1115,701,USA,AE,2012-11-30,2013-01-23,2012-11-30,2013-01-23,2013-05-20,,2013-05-20,,,,,,,,,,NA,2012-11-23,-7,84,YEARS,>64,M,WHITE,White,NOT HISPANIC OR LATINO,Y,Xanomeline Low Dose,Xan_Lo,Xanomeline Low Dose,Xan_Lo,Xanomeline Low Dose,Xanomeline Low Dose,2012-11-30,2012-11-30T00:00:00Z,H,2013-01-23,2013-01-23T23:59:59Z,H,DISCONTINUED,2013-01-23,,2012-11-30,2013-01-23,55,,,,,6,APPLICATION SITE PRURITUS,APPLICATION SITE PRURITUS,GENERAL DISORDERS AND ADMINISTRATION SITE CONDITIONS,,APPLICATION SITE ITCHING,,,HLT_0317,,HLGT_0338,,GENERAL DISORDERS AND ADMINISTRATION SITE CONDITIONS,,2012-12-02,2012-12-02,2012-12-02T00:00:00Z,,H,,,,,,3,3,,,,,Y,,N,N,N,N,N,N,MODERATE,MODERATE,2,PROBABLE,PROBABLE,,E11,NOT RECOVERED/NOT RESOLVED,N,N,2013-01-23,2012-12-02T00:00:00Z,54,mg
CDISCPILOT01,01-701-1115,1115,701,USA,AE,2012-11-30,2013-01-23,2012-11-30,2013-01-23,2013-05-20,,2013-05-20,,,,,,,,,,NA,2012-11-23,-7,84,YEARS,>64,M,WHITE,White,NOT HISPANIC OR LATINO,Y,Xanomeline Low Dose,Xan_Lo,Xanomeline Low Dose,Xan_Lo,Xanomeline Low Dose,Xanomeline Low Dose,2012-11-30,2012-11-30T00:00:00Z,H,2013-01-23,2013-01-23T23:59:59Z,H,DISCONTINUED,2013-01-23,,2012-11-30,2013-01-23,55,,,,,7,FATIGUE,FATIGUE,GENERAL DISORDERS AND ADMINISTRATION SITE CONDITIONS,,FATIGUE,,,HLT_0043,,HLGT_0181,,GENERAL DISORDERS AND ADMINISTRATION SITE CONDITIONS,,2013-01-14,2013-01-14,2013-01-14T00:00:00Z,,H,,,,,,46,46,,,,,Y,,N,N,N,N,N,N,MODERATE,MODERATE,2,REMOTE,REMOTE,,E13,NOT RECOVERED/NOT RESOLVED,N,N,2013-01-23,2013-01-14T00:00:00Z,54,mg
CDISCPILOT01,01-701-1115,1115,701,USA,AE,2012-11-30,2013-01-23,2012-11-30,2013-01-23,2013-05-20,,2013-05-20,,,,,,,,,,NA,2012-11-23,-7,84,YEARS,>64,M,WHITE,White,NOT HISPANIC OR LATINO,Y,Xanomeline Low Dose,Xan_Lo,Xanomeline Low Dose,Xan_Lo,Xanomeline Low Dose,Xanomeline Low Dose,2012-11-30,2012-11-30T00:00:00Z,H,2013-01-23,2013-01-23T23:59:59Z,H,DISCONTINUED,2013-01-23,,2012-11-30,2013-01-23,55,,,,,8,APPLICATION SITE IRRITATION,APPLICATION SITE IRRITATION,GENERAL DISORDERS AND ADMINISTRATION SITE CONDITIONS,,APPLICATION SITE BURNING,,,HLT_0061,,HLGT_0346,,GENERAL DISORDERS AND ADMINISTRATION SITE CONDITIONS,,2013-01-19,2013-01-19,2013-01-19T00:00:00Z,,H,,,,,,51,51,,,,,Y,,N,N,N,N,N,N,MODERATE,MODERATE,2,PROBABLE,PROBABLE,,E12,NOT RECOVERED/NOT RESOLVED,N,N,2013-01-23,2013-01-19T00:00:00Z,54,mg
CDISCPILOT01,01-701-1115,1115,701,USA,AE,2012-11-30,2013-01-23,2012-11-30,2013-01-23,2013-05-20,,2013-05-20,,,,,,,,,,NA,2012-11-23,-7,84,YEARS,>64,M,WHITE,White,NOT HISPANIC OR LATINO,Y,Xanomeline Low Dose,Xan_Lo,Xanomeline Low Dose,Xan_Lo,Xanomeline Low Dose,Xanomeline Low Dose,2012-11-30,2012-11-30T00:00:00Z,H,2013-01-23,2013-01-23T23:59:59Z,H,DISCONTINUED,2013-01-23,,2012-11-30,2013-01-23,55,,,,,9,APPLICATION SITE DERMATITIS,APPLICATION SITE DERMATITIS,GENERAL DISORDERS AND ADMINISTRATION SITE CONDITIONS,,APPLICATION SITE RASH,,,HLT_0343,,HLGT_0241,,GENERAL DISORDERS AND ADMINISTRATION SITE CONDITIONS,,2013-01-19,2013-01-19,2013-01-19T00:00:00Z,,H,,,,,,51,51,,,,,Y,,N,N,N,N,N,N,MODERATE,MODERATE,2,PROBABLE,PROBABLE,,E14,NOT RECOVERED/NOT RESOLVED,N,N,2013-01-23,2013-01-19T00:00:00Z,54,mg
CDISCPILOT01,01-701-1115,1115,701,USA,AE,2012-11-30,2013-01-23,2012-11-30,2013-01-23,2013-05-20,,2013-05-20,,,,,,,,,,NA,2012-11-23,-7,84,YEARS,>64,M,WHITE,White,NOT HISPANIC OR LATINO,Y,Xanomeline Low Dose,Xan_Lo,Xanomeline Low Dose,Xan_Lo,Xanomeline Low Dose,Xanomeline Low Dose,2012-11-30,2012-11-30T00:00:00Z,H,2013-01-23,2013-01-23T23:59:59Z,H,DISCONTINUED,2013-01-23,,2012-11-30,2013-01-23,55,,,,,1,APPLICATION SITE ERYTHEMA,APPLICATION SITE ERYTHEMA,GENERAL DISORDERS AND ADMINISTRATION SITE CONDITIONS,,APPLICATION SITE REDNESS,,,HLT_0617,,HLGT_0152,,GENERAL DISORDERS AND ADMINISTRATION SITE CONDITIONS,,2012-12-02,2012-12-02,2012-12-02T00:00:00Z,,H,,,,,,3,3,,,,,Y,,N,N,N,N,N,N,MILD,MILD,1,PROBABLE,PROBABLE,,E09,NOT RECOVERED/NOT RESOLVED,N,N,2012-12-13,2012-12-02T00:00:00Z,54,mg
CDISCPILOT01,01-701-1115,1115,701,USA,AE,2012-11-30,2013-01-23,2012-11-30,2013-01-23,2013-05-20,,2013-05-20,,,,,,,,,,NA,2012-11-23,-7,84,YEARS,>64,M,WHITE,White,NOT HISPANIC OR LATINO,Y,Xanomeline Low Dose,Xan_Lo,Xanomeline Low Dose,Xan_Lo,Xanomeline Low Dose,Xanomeline Low Dose,2012-11-30,2012-11-30T00:00:00Z,H,2013-01-23,2013-01-23T23:59:59Z,H,DISCONTINUED,2013-01-23,,2012-11-30,2013-01-23,55,,,,,2,APPLICATION SITE PRURITUS,APPLICATION SITE PRURITUS,GENERAL DISORDERS AND ADMINISTRATION SITE CONDITIONS,,APPLICATION SITE ITCHING,,,HLT_0317,,HLGT_0338,,GENERAL DISORDERS AND ADMINISTRATION SITE CONDITIONS,,2012-12-02,2012-12-02,2012-12-02T00:00:00Z,,H,,,,,,3,3,,,,,Y,,N,N,N,N,N,N,MILD,MILD,1,PROBABLE,PROBABLE,,E11,NOT RECOVERED/NOT RESOLVED,N,N,2012-12-13,2012-12-02T00:00:00Z,54,mg
CDISCPILOT01,01-701-1115,1115,701,USA,AE,2012-11-30,2013-01-23,2012-11-30,2013-01-23,2013-05-20,,2013-05-20,,,,,,,,,,NA,2012-11-23,-7,84,YEARS,>64,M,WHITE,White,NOT HISPANIC OR LATINO,Y,Xanomeline Low Dose,Xan_Lo,Xanomeline Low Dose,Xan_Lo,Xanomeline Low Dose,Xanomeline Low Dose,2012-11-30,2012-11-30T00:00:00Z,H,2013-01-23,2013-01-23T23:59:59Z,H,DISCONTINUED,2013-01-23,,2012-11-30,2013-01-23,55,,,,,3,APPLICATION SITE IRRITATION,APPLICATION SITE IRRITATION,GENERAL DISORDERS AND ADMINISTRATION SITE CONDITIONS,,APPLICATION SITE BURNING,,,HLT_0061,,HLGT_0346,,GENERAL DISORDERS AND ADMINISTRATION SITE CONDITIONS,,2012-12-26,2012-12-26,2012-12-26T00:00:00Z,,H,2012-12-26,2012-12-26,2012-12-26T23:59:59Z,,H,27,27,27,27,1,days,Y,,N,N,N,N,N,N,MILD,MILD,1,POSSIBLE,POSSIBLE,,E10,NOT RECOVERED/NOT RESOLVED,N,N,2012-12-26,2012-12-26T00:00:00Z,54,mg
CDISCPILOT01,01-701-1115,1115,701,USA,AE,2012-11-30,2013-01-23,2012-11-30,2013-01-23,2013-05-20,,2013-05-20,,,,,,,,,,NA,2012-11-23,-7,84,YEARS,>64,M,WHITE,White,NOT HISPANIC OR LATINO,Y,Xanomeline Low Dose,Xan_Lo,Xanomeline Low Dose,Xan_Lo,Xanomeline Low Dose,Xanomeline Low Dose,2012-11-30,2012-11-30T00:00:00Z,H,2013-01-23,2013-01-23T23:59:59Z,H,DISCONTINUED,2013-01-23,,2012-11-30,2013-01-23,55,,,,,4,APPLICATION SITE IRRITATION,APPLICATION SITE IRRITATION,GENERAL DISORDERS AND ADMINISTRATION SITE CONDITIONS,,APPLICATION SITE BURNING,,,HLT_0061,,HLGT_0346,,GENERAL DISORDERS AND ADMINISTRATION SITE CONDITIONS,,2012-12-26,2012-12-26,2012-12-26T00:00:00Z,,H,2012-12-26,2012-12-26,2012-12-26T23:59:59Z,,H,27,27,27,27,1,days,Y,,N,N,N,N,N,N,MILD,MILD,1,POSSIBLE,POSSIBLE,,E10,RECOVERED/RESOLVED,N,N,2012-12-28,2012-12-26T00:00:00Z,54,mg
CDISCPILOT01,01-701-1130,1130,701,USA,AE,2014-02-15,2014-08-16,2014-02-15,2014-08-16,2014-08-16T13:10,,,,,,,,,,,,NA,2014-02-09,-6,84,YEARS,>64,M,WHITE,White,NOT HISPANIC OR LATINO,Y,Placebo,Pbo,Placebo,Pbo,Placebo,Placebo,2014-02-15,2014-02-15T00:00:00Z,H,2014-08-16,2014-08-16T23:59:59Z,H,COMPLETED,2014-08-16,,2014-02-15,2014-08-16,183,,,,,1,URINARY TRACT INFECTION,URINARY TRACT INFECTION,INFECTIONS AND INFESTATIONS,,URINARY TRACT INFECTION,,,HLT_0161,,HLGT_0093,,INFECTIONS AND INFESTATIONS,,2014-03-09,2014-03-09,2014-03-09T00:00:00Z,,H,2014-03-16,2014-03-16,2014-03-16T23:59:59Z,,H,23,23,30,30,8,days,Y,Y,N,N,N,N,N,N,MILD,MILD,1,NONE,NONE,,E06,NOT RECOVERED/NOT RESOLVED,N,N,2014-03-15,2014-03-09T00:00:00Z,0,mg
CDISCPILOT01,01-701-1130,1130,701,USA,AE,2014-02-15,2014-08-16,2014-02-15,2014-08-16,2014-08-16T13:10,,,,,,,,,,,,NA,2014-02-09,-6,84,YEARS,>64,M,WHITE,White,NOT HISPANIC OR LATINO,Y,Placebo,Pbo,Placebo,Pbo,Placebo,Placebo,2014-02-15,2014-02-15T00:00:00Z,H,2014-08-16,2014-08-16T23:59:59Z,H,COMPLETED,2014-08-16,,2014-02-15,2014-08-16,183,,,,,2,PYREXIA,PYREXIA,GENERAL DISORDERS AND ADMINISTRATION SITE CONDITIONS,,FEVER,,,HLT_0310,,HLGT_0652,,GENERAL DISORDERS AND ADMINISTRATION SITE CONDITIONS,,2014-03-09,2014-03-09,2014-03-09T00:00:00Z,,H,2014-03-09,2014-03-09,2014-03-09T23:59:59Z,,H,23,23,23,23,1,days,Y,,N,N,N,N,N,N,MILD,MILD,1,NONE,NONE,,E07,RECOVERED/RESOLVED,N,N,2014-03-15,2014-03-09T00:00:00Z,0,mg
CDISCPILOT01,01-701-1130,1130,701,USA,AE,2014-02-15,2014-08-16,2014-02-15,2014-08-16,2014-08-16T13:10,,,,,,,,,,,,NA,2014-02-09,-6,84,YEARS,>64,M,WHITE,White,NOT HISPANIC OR LATINO,Y,Placebo,Pbo,Placebo,Pbo,Placebo,Placebo,2014-02-15,2014-02-15T00:00:00Z,H,2014-08-16,2014-08-16T23:59:59Z,H,COMPLETED,2014-08-16,,2014-02-15,2014-08-16,183,,,,,3,URINARY TRACT INFECTION,URINARY TRACT INFECTION,INFECTIONS AND INFESTATIONS,,URINARY TRACT INFECTION,,,HLT_0161,,HLGT_0093,,INFECTIONS AND INFESTATIONS,,2014-03-09,2014-03-09,2014-03-09T00:00:00Z,,H,2014-03-16,2014-03-16,2014-03-16T23:59:59Z,,H,23,23,30,30,8,days,Y,,N,N,N,N,N,N,MILD,MILD,1,NONE,NONE,,E06,RECOVERED/RESOLVED,N,N,2014-03-17,2014-03-09T00:00:00Z,0,mg
CDISCPILOT01,01-701-1130,1130,701,USA,AE,2014-02-15,2014-08-16,2014-02-15,2014-08-16,2014-08-16T13:10,,,,,,,,,,,,NA,2014-02-09,-6,84,YEARS,>64,M,WHITE,White,NOT HISPANIC OR LATINO,Y,Placebo,Pbo,Placebo,Pbo,Placebo,Placebo,2014-02-15,2014-02-15T00:00:00Z,H,2014-08-16,2014-08-16T23:59:59Z,H,COMPLETED,2014-08-16,,2014-02-15,2014-08-16,183,,,,,4,EYE SWELLING,EYE SWELLING,EYE DISORDERS,,EYES SWOLLEN,,,HLT_0008,,HLGT_0466,,EYE DISORDERS,,2014-05-09,2014-05-09,2014-05-09T00:00:00Z,,H,2014-05-09,2014-05-09,2014-05-09T23:59:59Z,,H,84,84,84,84,1,days,Y,,N,N,N,N,N,N,MILD,MILD,1,NONE,NONE,,E08,RECOVERED/RESOLVED,N,N,2014-05-16,2014-05-09T00:00:00Z,0,mg
CDISCPILOT01,01-701-1130,1130,701,USA,AE,2014-02-15,2014-08-16,2014-02-15,2014-08-16,2014-08-16T13:10,,,,,,,,,,,,NA,2014-02-09,-6,84,YEARS,>64,M,WHITE,White,NOT HISPANIC OR LATINO,Y,Placebo,Pbo,Placebo,Pbo,Placebo,Placebo,2014-02-15,2014-02-15T00:00:00Z,H,2014-08-16,2014-08-16T23:59:59Z,H,COMPLETED,2014-08-16,,2014-02-15,2014-08-16,183,,,,,5,EYE ALLERGY,EYE ALLERGY,EYE DISORDERS,,EYE ALLERGY,,,HLT_0256,,HLGT_0071,,EYE DISORDERS,,2014-05-09,2014-05-09,2014-05-09T00:00:00Z,,H,2014-05-09,2014-05-09,2014-05-09T23:59:59Z,,H,84,84,84,84,1,days,Y,,N,N,N,N,N,N,MILD,MILD,1,NONE,NONE,,E09,RECOVERED/RESOLVED,N,N,2014-05-16,2014-05-09T00:00:00Z,0,mg
CDISCPILOT01,01-701-1130,1130,701,USA,AE,2014-02-15,2014-08-16,2014-02-15,2014-08-16,2014-08-16T13:10,,,,,,,,,,,,NA,2014-02-09,-6,84,YEARS,>64,M,WHITE,White,NOT HISPANIC OR LATINO,Y,Placebo,Pbo,Placebo,Pbo,Placebo,Placebo,2014-02-15,2014-02-15T00:00:00Z,H,2014-08-16,2014-08-16T23:59:59Z,H,COMPLETED,2014-08-16,,2014-02-15,2014-08-16,183,,,,,6,EYE PRURITUS,EYE PRURITUS,EYE DISORDERS,,EYE ITCHING,,,HLT_0523,,HLGT_0240,,EYE DISORDERS,,2014-05-22,2014-05-22,2014-05-22T00:00:00Z,,H,,,,,,97,97,,,,,Y,,N,N,N,N,N,N,MILD,MILD,1,REMOTE,REMOTE,,E10,NOT RECOVERED/NOT RESOLVED,N,N,2014-06-07,2014-05-22T00:00:00Z,0,mg
CDISCPILOT01,01-701-1130,1130,701,USA,AE,2014-02-15,2014-08-16,2014-02-15,2014-08-16,2014-08-16T13:10,,,,,,,,,,,,NA,2014-02-09,-6,84,YEARS,>64,M,WHITE,White,NOT HISPANIC OR LATINO,Y,Placebo,Pbo,Placebo,Pbo,Placebo,Placebo,2014-02-15,2014-02-15T00:00:00Z,H,2014-08-16,2014-08-16T23:59:59Z,H,COMPLETED,2014-08-16,,2014-02-15,2014-08-16,183,,,,,7,PRURITUS,PRURITUS,SKIN AND SUBCUTANEOUS TISSUE DISORDERS,,ITCHING BOTH HANDS,,,HLT_0778,,HLGT_0695,,SKIN AND SUBCUTANEOUS TISSUE DISORDERS,,2014-05-22,2014-05-22,2014-05-22T00:00:00Z,,H,,,,,,97,97,,,,,Y,,N,N,N,N,N,N,MILD,MILD,1,REMOTE,REMOTE,,E11,NOT RECOVERED/NOT RESOLVED,N,N,2014-06-07,2014-05-22T00:00:00Z,0,mg
CDISCPILOT01,01-701-1130,1130,701,USA,AE,2014-02-15,2014-08-16,2014-02-15,2014-08-16,2014-08-16T13:10,,,,,,,,,,,,NA,2014-02-09,-6,84,YEARS,>64,M,WHITE,White,NOT HISPANIC OR LATINO,Y,Placebo,Pbo,Placebo,Pbo,Placebo,Placebo,2014-02-15,2014-02-15T00:00:00Z,H,2014-08-16,2014-08-16T23:59:59Z,H,COMPLETED,2014-08-16,,2014-02-15,2014-08-16,183,,,,,8,NASAL CONGESTION,NASAL CONGESTION,"RESPIRATORY, THORACIC AND MEDIASTINAL DISORDERS",,NASAL CONGESTION,,,HLT_0118,,HLGT_0549,,"RESPIRATORY, THORACIC AND MEDIASTINAL DISORDERS",,2014-05-22,2014-05-22,2014-05-22T00:00:00Z,,H,,,,,,97,97,,,,,Y,,N,N,N,N,N,N,MILD,MILD,1,REMOTE,REMOTE,,E12,NOT RECOVERED/NOT RESOLVED,N,N,2014-06-07,2014-05-22T00:00:00Z,0,mg
CDISCPILOT01,01-701-1133,1133,701,USA,AE,2012-10-28,2013-04-29,2012-10-28,2013-04-28,2013-04-29T10:13,,,,,,,,,,,,NA,2012-10-23,-5,81,YEARS,>64,F,WHITE,White,NOT HISPANIC OR LATINO,Y,Xanomeline High Dose,Xan_Hi,Xanomeline High Dose,Xan_Hi,Xanomeline High Dose,Xanomeline High Dose,2012-10-28,2012-10-28T00:00:00Z,H,2013-04-28,2013-04-28T23:59:59Z,H,COMPLETED,2013-04-29,,2012-10-28,2013-04-29,183,,,,,3,APPLICATION SITE ERYTHEMA,APPLICATION SITE ERYTHEMA,GENERAL DISORDERS AND ADMINISTRATION SITE CONDITIONS,,APPLICATION SITE REDNESS,,,HLT_0617,,HLGT_0152,,GENERAL DISORDERS AND ADMINISTRATION SITE CONDITIONS,,2012-12-27,2012-12-27,2012-12-27T00:00:00Z,,H,,,,,,61,61,,,,,Y,Y,N,N,N,N,N,N,MODERATE,MODERATE,2,PROBABLE,PROBABLE,,E04,NOT RECOVERED/NOT RESOLVED,N,N,2013-02-18,2012-11-12T00:00:00Z,,
CDISCPILOT01,01-701-1133,1133,701,USA,AE,2012-10-28,2013-04-29,2012-10-28,2013-04-28,2013-04-29T10:13,,,,,,,,,,,,NA,2012-10-23,-5,81,YEARS,>64,F,WHITE,White,NOT HISPANIC OR LATINO,Y,Xanomeline High Dose,Xan_Hi,Xanomeline High Dose,Xan_Hi,Xanomeline High Dose,Xanomeline High Dose,2012-10-28,2012-10-28T00:00:00Z,H,2013-04-28,2013-04-28T23:59:59Z,H,COMPLETED,2013-04-29,,2012-10-28,2013-04-29,183,,,,,4,APPLICATION SITE PRURITUS,APPLICATION SITE PRURITUS,GENERAL DISORDERS AND ADMINISTRATION SITE CONDITIONS,,APPLICATION SITE ITCHING,,,HLT_0317,,HLGT_0338,,GENERAL DISORDERS AND ADMINISTRATION SITE CONDITIONS,,2012-12-27,2012-12-27,2012-12-27T00:00:00Z,,H,,,,,,61,61,,,,,Y,,N,N,N,N,N,N,MODERATE,MODERATE,2,PROBABLE,PROBABLE,,E05,NOT RECOVERED/NOT RESOLVED,N,N,2013-02-18,2012-11-12T00:00:00Z,,
CDISCPILOT01,01-701-1133,1133,701,USA,AE,2012-10-28,2013-04-29,2012-10-28,2013-04-28,2013-04-29T10:13,,,,,,,,,,,,NA,2012-10-23,-5,81,YEARS,>64,F,WHITE,White,NOT HISPANIC OR LATINO,Y,Xanomeline High Dose,Xan_Hi,Xanomeline High Dose,Xan_Hi,Xanomeline High Dose,Xanomeline High Dose,2012-10-28,2012-10-28T00:00:00Z,H,2013-04-28,2013-04-28T23:59:59Z,H,COMPLETED,2013-04-29,,2012-10-28,2013-04-29,183,,,,,1,APPLICATION SITE ERYTHEMA,APPLICATION SITE ERYTHEMA,GENERAL DISORDERS AND ADMINISTRATION SITE CONDITIONS,,APPLICATION SITE REDNESS,,,HLT_0617,,HLGT_0152,,GENERAL DISORDERS AND ADMINISTRATION SITE CONDITIONS,,2012-12-27,2012-12-27,2012-12-27T00:00:00Z,,H,,,,,,61,61,,,,,Y,,N,N,N,N,N,N,MILD,MILD,1,PROBABLE,PROBABLE,,E04,NOT RECOVERED/NOT RESOLVED,N,N,2013-01-22,2012-11-12T00:00:00Z,,
CDISCPILOT01,01-701-1133,1133,701,USA,AE,2012-10-28,2013-04-29,2012-10-28,2013-04-28,2013-04-29T10:13,,,,,,,,,,,,NA,2012-10-23,-5,81,YEARS,>64,F,WHITE,White,NOT HISPANIC OR LATINO,Y,Xanomeline High Dose,Xan_Hi,Xanomeline High Dose,Xan_Hi,Xanomeline High Dose,Xanomeline High Dose,2012-10-28,2012-10-28T00:00:00Z,H,2013-04-28,2013-04-28T23:59:59Z,H,COMPLETED,2013-04-29,,2012-10-28,2013-04-29,183,,,,,2,APPLICATION SITE PRURITUS,APPLICATION SITE PRURITUS,GENERAL DISORDERS AND ADMINISTRATION SITE CONDITIONS,,APPLICATION SITE ITCHING,,,HLT_0317,,HLGT_0338,,GENERAL DISORDERS AND ADMINISTRATION SITE CONDITIONS,,2012-12-27,2012-12-27,2012-12-27T00:00:00Z,,H,,,,,,61,61,,,,,Y,,N,N,N,N,N,N,MILD,MILD,1,PROBABLE,PROBABLE,,E05,NOT RECOVERED/NOT RESOLVED,N,N,2013-01-22,2012-11-12T00:00:00Z,,
CDISCPILOT01,01-701-1146,1146,701,USA,AE,2013-05-20,2013-06-30,2013-05-20,2013-06-26,2013-07-15,,,,,,,,,,,,NA,2013-05-07,-13,75,YEARS,>64,F,WHITE,White,NOT HISPANIC OR LATINO,Y,Xanomeline High Dose,Xan_Hi,Xanomeline High Dose,Xan_Hi,Xanomeline High Dose,Xanomeline High Dose,2013-05-20,2013-05-20T00:00:00Z,H,2013-06-26,2013-06-26T23:59:59Z,H,DISCONTINUED,2013-06-30,,2013-05-20,2013-06-30,38,,,,,7,APPLICATION SITE ERYTHEMA,APPLICATION SITE ERYTHEMA,GENERAL DISORDERS AND ADMINISTRATION SITE CONDITIONS,,APPLICATION SITE ERYTHEMA,,,HLT_0617,,HLGT_0152,,GENERAL DISORDERS AND ADMINISTRATION SITE CONDITIONS,,2013-06-10,2013-06-10,2013-06-10T00:00:00Z,,H,,,,,,22,22,,,,,Y,Y,N,N,N,N,N,N,MODERATE,MODERATE,2,PROBABLE,PROBABLE,,E12,NOT RECOVERED/NOT RESOLVED,N,N,2013-06-30,2013-06-03T00:00:00Z,,
CDISCPILOT01,01-701-1146,1146,701,USA,AE,2013-05-20,2013-06-30,2013-05-20,2013-06-26,2013-07-15,,,,,,,,,,,,NA,2013-05-07,-13,75,YEARS,>64,F,WHITE,White,NOT HISPANIC OR LATINO,Y,Xanomeline High Dose,Xan_Hi,Xanomeline High Dose,Xan_Hi,Xanomeline High Dose,Xanomeline High Dose,2013-05-20,2013-05-20T00:00:00Z,H,2013-06-26,2013-06-26T23:59:59Z,H,DISCONTINUED,2013-06-30,,2013-05-20,2013-06-30,38,,,,,8,APPLICATION SITE PRURITUS,APPLICATION SITE PRURITUS,GENERAL DISORDERS AND ADMINISTRATION SITE CONDITIONS,,APPLICATION SITE ITCHING,,,HLT_0317,,HLGT_0338,,GENERAL DISORDERS AND ADMINISTRATION SITE CONDITIONS,,2013-06-10,2013-06-10,2013-06-10T00:00:00Z,,H,,,,,,22,22,,,,,Y,,N,N,N,N,N,N,MODERATE,MODERATE,2,PROBABLE,PROBABLE,,E13,NOT RECOVERED/NOT RESOLVED,N,N,2013-06-30,2013-06-03T00:00:00Z,,
CDISCPILOT01,01-701-1146,1146,701,USA,AE,2013-05-20,2013-06-30,2013-05-20,2013-06-26,2013-07-15,,,,,,,,,,,,NA,2013-05-07,-13,75,YEARS,>64,F,WHITE,White,NOT HISPANIC OR LATINO,Y,Xanomeline High Dose,Xan_Hi,Xanomeline High Dose,Xan_Hi,Xanomeline High Dose,Xanomeline High Dose,2013-05-20,2013-05-20T00:00:00Z,H,2013-06-26,2013-06-26T23:59:59Z,H,DISCONTINUED,2013-06-30,,2013-05-20,2013-06-30,38,,,,,9,APPLICATION SITE PAIN,APPLICATION SITE PAIN,GENERAL DISORDERS AND ADMINISTRATION SITE CONDITIONS,,APPLICATION SITE PAIN,,,HLT_0342,,HLGT_0085,,GENERAL DISORDERS AND ADMINISTRATION SITE CONDITIONS,,2013-06-22,2013-06-22,2013-06-22T00:00:00Z,,H,,,,,,34,34,,,,,Y,,N,N,N,N,N,N,MODERATE,MODERATE,2,PROBABLE,PROBABLE,,E14,NOT RECOVERED/NOT RESOLVED,N,N,2013-06-30,2013-06-03T00:00:00Z,,
CDISCPILOT01,01-701-1146,1146,701,USA,AE,2013-05-20,2013-06-30,2013-05-20,2013-06-26,2013-07-15,,,,,,,,,,,,NA,2013-05-07,-13,75,YEARS,>64,F,WHITE,White,NOT HISPANIC OR LATINO,Y,Xanomeline High Dose,Xan_Hi,Xanomeline High Dose,Xan_Hi,Xanomeline High Dose,Xanomeline High Dose,2013-05-20,2013-05-20T00:00:00Z,H,2013-06-26,2013-06-26T23:59:59Z,H,DISCONTINUED,2013-06-30,,2013-05-20,2013-06-30,38,,,,,10,APPLICATION SITE VESICLES,APPLICATION SITE VESICLES,GENERAL DISORDERS AND ADMINISTRATION SITE CONDITIONS,,APPLICATION SITE VESICLES,,,HLT_0180,,HLGT_0576,,GENERAL DISORDERS AND ADMINISTRATION SITE CONDITIONS,,2013-06-26,2013-06-26,2013-06-26T00:00:00Z,,H,,,,,,38,38,,,,,Y,,N,N,N,N,N,N,MODERATE,MODERATE,2,PROBABLE,PROBABLE,,E15,NOT RECOVERED/NOT RESOLVED,N,N,2013-06-30,2013-06-03T00:00:00Z,,
CDISCPILOT01,01-701-1146,1146,701,USA,AE,2013-05-20,2013-06-30,2013-05-20,2013-06-26,2013-07-15,,,,,,,,,,,,NA,2013-05-07,-13,75,YEARS,>64,F,WHITE,White,NOT HISPANIC OR LATINO,Y,Xanomeline High Dose,Xan_Hi,Xanomeline High Dose,Xan_Hi,Xanomeline High Dose,Xanomeline High Dose,2013-05-20,2013-05-20T00:00:00Z,H,2013-06-26,2013-06-26T23:59:59Z,H,DISCONTINUED,2013-06-30,,2013-05-20,2013-06-30,38,,,,,11,APPLICATION SITE IRRITATION,APPLICATION SITE IRRITATION,GENERAL DISORDERS AND ADMINISTRATION SITE CONDITIONS,,APPLICATION SITE BURNING,,,HLT_0061,,HLGT_0346,,GENERAL DISORDERS AND ADMINISTRATION SITE CONDITIONS,,2013-06-26,2013-06-26,2013-06-26T00:00:00Z,,H,,,,,,38,38,,,,,Y,,N,N,N,N,N,N,MODERATE,MODERATE,2,PROBABLE,PROBABLE,,E16,NOT RECOVERED/NOT RESOLVED,N,N,2013-06-30,2013-06-03T00:00:00Z,,
CDISCPILOT01,01-701-1146,1146,701,USA,AE,2013-05-20,2013-06-30,2013-05-20,2013-06-26,2013-07-15,,,,,,,,,,,,NA,2013-05-07,-13,75,YEARS,>64,F,WHITE,White,NOT HISPANIC OR LATINO,Y,Xanomeline High Dose,Xan_Hi,Xanomeline High Dose,Xan_Hi,Xanomeline High Dose,Xanomeline High Dose,2013-05-20,2013-05-20T00:00:00Z,H,2013-06-26,2013-06-26T23:59:59Z,H,DISCONTINUED,2013-06-30,,2013-05-20,2013-06-30,38,,,,,3,APPLICATION SITE IRRITATION,APPLICATION SITE IRRITATION,GENERAL DISORDERS AND ADMINISTRATION SITE CONDITIONS,,APPLICATION SITE IRRITATION,,,HLT_0061,,HLGT_0346,,GENERAL DISORDERS AND ADMINISTRATION SITE CONDITIONS,,2013-06-01,2013-06-01,2013-06-01T00:00:00Z,,H,2013-06-02,2013-06-02,2013-06-02T23:59:59Z,,H,13,13,14,14,2,days,Y,,N,N,N,N,N,N,MILD,MILD,1,PROBABLE,PROBABLE,,E10,RECOVERED/RESOLVED,N,N,2013-06-03,2013-06-01T00:00:00Z,54,mg
CDISCPILOT01,01-701-1146,1146,701,USA,AE,2013-05-20,2013-06-30,2013-05-20,2013-06-26,2013-07-15,,,,,,,,,,,,NA,2013-05-07,-13,75,YEARS,>64,F,WHITE,White,NOT HISPANIC OR LATINO,Y,Xanomeline High Dose,Xan_Hi,Xanomeline High Dose,Xan_Hi,Xanomeline High Dose,Xanomeline High Dose,2013-05-20,2013-05-20T00:00:00Z,H,2013-06-26,2013-06-26T23:59:59Z,H,DISCONTINUED,2013-06-30,,2013-05-20,2013-06-30,38,,,,,4,FATIGUE,FATIGUE,GENERAL DISORDERS AND ADMINISTRATION SITE CONDITIONS,,FATIGUE,,,HLT_0043,,HLGT_0181,,GENERAL DISORDERS AND ADMINISTRATION SITE CONDITIONS,,2013-06-03,2013-06-03,2013-06-03T00:00:00Z,,H,,,,,,15,15,,,,,Y,,N,N,N,N,N,N,MILD,MILD,1,POSSIBLE,POSSIBLE,,E11,NOT RECOVERED/NOT RESOLVED,N,N,2013-06-03,2013-06-03T00:00:00Z,54,mg
CDISCPILOT01,01-701-1146,1146,701,USA,AE,2013-05-20,2013-06-30,2013-05-20,2013-06-26,2013-07-15,,,,,,,,,,,,NA,2013-05-07,-13,75,YEARS,>64,F,WHITE,White,NOT HISPANIC OR LATINO,Y,Xanomeline High Dose,Xan_Hi,Xanomeline High Dose,Xan_Hi,Xanomeline High Dose,Xanomeline High Dose,2013-05-20,2013-05-20T00:00:00Z,H,2013-06-26,2013-06-26T23:59:59Z,H,DISCONTINUED,2013-06-30,,2013-05-20,2013-06-30,38,,,,,5,APPLICATION SITE ERYTHEMA,APPLICATION SITE ERYTHEMA,GENERAL DISORDERS AND ADMINISTRATION SITE CONDITIONS,,APPLICATION SITE ERYTHEMA,,,HLT_0617,,HLGT_0152,,GENERAL DISORDERS AND ADMINISTRATION SITE CONDITIONS,,2013-06-10,2013-06-10,2013-06-10T00:00:00Z,,H,,,,,,22,22,,,,,Y,,N,N,N,N,N,N,MILD,MILD,1,PROBABLE,PROBABLE,,E12,NOT RECOVERED/NOT RESOLVED,N,N,2013-06-16,2013-06-03T00:00:00Z,,
CDISCPILOT01,01-701-1146,1146,701,USA,AE,2013-05-20,2013-06-30,2013-05-20,2013-06-26,2013-07-15,,,,,,,,,,,,NA,2013-05-07,-13,75,YEARS,>64,F,WHITE,White,NOT HISPANIC OR LATINO,Y,Xanomeline High Dose,Xan_Hi,Xanomeline High Dose,Xan_Hi,Xanomeline High Dose,Xanomeline High Dose,2013-05-20,2013-05-20T00:00:00Z,H,2013-06-26,2013-06-26T23:59:59Z,H,DISCONTINUED,2013-06-30,,2013-05-20,2013-06-30,38,,,,,6,APPLICATION SITE PRURITUS,APPLICATION SITE PRURITUS,GENERAL DISORDERS AND ADMINISTRATION SITE CONDITIONS,,APPLICATION SITE ITCHING,,,HLT_0317,,HLGT_0338,,GENERAL DISORDERS AND ADMINISTRATION SITE CONDITIONS,,2013-06-10,2013-06-10,2013-06-10T00:00:00Z,,H,,,,,,22,22,,,,,Y,,N,N,N,N,N,N,MILD,MILD,1,PROBABLE,PROBABLE,,E13,NOT RECOVERED/NOT RESOLVED,N,N,2013-06-16,2013-06-03T00:00:00Z,,
CDISCPILOT01,01-701-1148,1148,701,USA,AE,2013-08-23,2014-02-20,2013-08-23,2014-02-20,2014-02-20T15:07,,,,,,,,,,,,NA,2013-08-14,-9,57,YEARS,18-64,M,WHITE,White,NOT HISPANIC OR LATINO,Y,Xanomeline High Dose,Xan_Hi,Xanomeline High Dose,Xan_Hi,Xanomeline High Dose,Xanomeline High Dose,2013-08-23,2013-08-23T00:00:00Z,H,2014-02-20,2014-02-20T23:59:59Z,H,COMPLETED,2014-02-20,,2013-08-23,2014-02-20,182,,,,,3,LOWER RESPIRATORY TRACT INFECTION,LOWER RESPIRATORY TRACT INFECTION,INFECTIONS AND INFESTATIONS,,CHEST COLD,,,HLT_0052,,HLGT_0217,,INFECTIONS AND INFESTATIONS,,2013-10-12,2013-10-12,2013-10-12T00:00:00Z,,H,2013-11-10,2013-11-10,2013-11-10T23:59:59Z,,H,51,51,80,80,30,days,Y,Y,N,N,N,N,N,N,MODERATE,MODERATE,2,NONE,NONE,,E23,NOT RECOVERED/NOT RESOLVED,N,N,2013-10-18,2013-09-05T00:00:00Z,,
CDISCPILOT01,01-701-1148,1148,701,USA,AE,2013-08-23,2014-02-20,2013-08-23,2014-02-20,2014-02-20T15:07,,,,,,,,,,,,NA,2013-08-14,-9,57,YEARS,18-64,M,WHITE,White,NOT HISPANIC OR LATINO,Y,Xanomeline High Dose,Xan_Hi,Xanomeline High Dose,Xan_Hi,Xanomeline High Dose,Xanomeline High Dose,2013-08-23,2013-08-23T00:00:00Z,H,2014-02-20,2014-02-20T23:59:59Z,H,COMPLETED,2014-02-20,,2013-08-23,2014-02-20,182,,,,,4,LOWER RESPIRATORY TRACT INFECTION,LOWER RESPIRATORY TRACT INFECTION,INFECTIONS AND INFESTATIONS,,CHEST COLD,,,HLT_0052,,HLGT_0217,,INFECTIONS AND INFESTATIONS,,2013-10-12,2013-10-12,2013-10-12T00:00:00Z,,H,2013-11-10,2013-11-10,2013-11-10T23:59:59Z,,H,51,51,80,80,30,days,Y,,N,N,N,N,N,N,MODERATE,MODERATE,2,NONE,NONE,,E23,RECOVERED/RESOLVED,N,N,2013-11-17,2013-09-05T00:00:00Z,,
CDISCPILOT01,01-701-1148,1148,701,USA,AE,2013-08-23,2014-02-20,2013-08-23,2014-02-20,2014-02-20T15:07,,,,,,,,,,,,NA,2013-08-14,-9,57,YEARS,18-64,M,WHITE,White,NOT HISPANIC OR LATINO,Y,Xanomeline High Dose,Xan_Hi,Xanomeline High Dose,Xan_Hi,Xanomeline High Dose,Xanomeline High Dose,2013-08-23,2013-08-23T00:00:00Z,H,2014-02-20,2014-02-20T23:59:59Z,H,COMPLETED,2014-02-20,,2013-08-23,2014-02-20,182,,,,,5,FLANK PAIN,FLANK PAIN,MUSCULOSKELETAL AND CONNECTIVE TISSUE DISORDERS,,FLANK PAIN,,,HLT_0484,,HLGT_0543,,MUSCULOSKELETAL AND CONNECTIVE TISSUE DISORDERS,,2013-12-15,2013-12-15,2013-12-15T00:00:00Z,,H,2013-12-17,2013-12-17,2013-12-17T23:59:59Z,,H,115,115,117,117,3,days,Y,,N,N,N,N,N,N,MODERATE,MODERATE,2,NONE,NONE,,E24,RECOVERED/RESOLVED,N,N,2014-01-10,2013-09-05T00:00:00Z,,
CDISCPILOT01,01-701-1148,1148,701,USA,AE,2013-08-23,2014-02-20,2013-08-23,2014-02-20,2014-02-20T15:07,,,,,,,,,,,,NA,2013-08-14,-9,57,YEARS,18-64,M,WHITE,White,NOT HISPANIC OR LATINO,Y,Xanomeline High Dose,Xan_Hi,Xanomeline High Dose,Xan_Hi,Xanomeline High Dose,Xanomeline High Dose,2013-08-23,2013-08-23T00:00:00Z,H,2014-02-20,2014-02-20T23:59:59Z,H,COMPLETED,2014-02-20,,2013-08-23,2014-02-20,182,,,,,6,CALCULUS URETHRAL,CALCULUS URETHRAL,RENAL AND URINARY DISORDERS,,URETHRAL CALCULUS,,,HLT_0550,,HLGT_0414,,RENAL AND URINARY DISORDERS,,2013-12-17,2013-12-17,2013-12-17T00:00:00Z,,H,2013-12-17,2013-12-17,2013-12-17T23:59:59Z,,H,117,117,117,117,1,days,Y,,N,N,N,N,N,N,MODERATE,MODERATE,2,NONE,NONE,,E25,RECOVERED/RESOLVED,N,N,2014-01-10,2013-09-05T00:00:00Z,,
CDISCPILOT01,01-701-1148,1148,701,USA,AE,2013-08-23,2014-02-20,2013-08-23,2014-02-20,2014-02-20T15:07,,,,,,,,,,,,NA,2013-08-14,-9,57,YEARS,18-64,M,WHITE,White,NOT HISPANIC OR LATINO,Y,Xanomeline High Dose,Xan_Hi,Xanomeline High Dose,Xan_Hi,Xanomeline High Dose,Xanomeline High Dose,2013-08-23,2013-08-23T00:00:00Z,H,2014-02-20,2014-02-20T23:59:59Z,H,COMPLETED,2014-02-20,,2013-08-23,2014-02-20,182,,,,,1,APPLICATION SITE ERYTHEMA,APPLICATION SITE ERYTHEMA,GENERAL DISORDERS AND ADMINISTRATION SITE CONDITIONS,,APPLICATION SITE REDNESS,,,HLT_0617,,HLGT_0152,,GENERAL DISORDERS AND ADMINISTRATION SITE CONDITIONS,,2013-08-25,2013-08-25,2013-08-25T00:00:00Z,,H,,,,,,3,3,,,,,Y,,N,N,N,N,N,N,MILD,MILD,1,PROBABLE,PROBABLE,,E20,NOT RECOVERED/NOT RESOLVED,N,N,2013-09-05,2013-08-25T00:00:00Z,54,mg
CDISCPILOT01,01-701-1148,1148,701,USA,AE,2013-08-23,2014-02-20,2013-08-23,2014-02-20,2014-02-20T15:07,,,,,,,,,,,,NA,2013-08-14,-9,57,YEARS,18-64,M,WHITE,White,NOT HISPANIC OR LATINO,Y,Xanomeline High Dose,Xan_Hi,Xanomeline High Dose,Xan_Hi,Xanomeline High Dose,Xanomeline High Dose,2013-08-23,2013-08-23T00:00:00Z,H,2014-02-20,2014-02-20T23:59:59Z,H,COMPLETED,2014-02-20,,2013-08-23,2014-02-20,182,,,,,2,APPLICATION SITE PRURITUS,APPLICATION SITE PRURITUS,GENERAL DISORDERS AND ADMINISTRATION SITE CONDITIONS,,APPLICATION SITE ITCHING,,,HLT_0317,,HLGT_0338,,GENERAL DISORDERS AND ADMINISTRATION SITE CONDITIONS,,2013-08-25,2013-08-25,2013-08-25T00:00:00Z,,H,,,,,,3,3,,,,,Y,,N,N,N,N,N,N,MILD,MILD,1,PROBABLE,PROBABLE,,E21,NOT RECOVERED/NOT RESOLVED,N,N,2013-09-05,2013-08-25T00:00:00Z,54,mg
CDISCPILOT01,01-701-1148,1148,701,USA,AE,2013-08-23,2014-02-20,2013-08-23,2014-02-20,2014-02-20T15:07,,,,,,,,,,,,NA,2013-08-14,-9,57,YEARS,18-64,M,WHITE,White,NOT HISPANIC OR LATINO,Y,Xanomeline High Dose,Xan_Hi,Xanomeline High Dose,Xan_Hi,Xanomeline High Dose,Xanomeline High Dose,2013-08-23,2013-08-23T00:00:00Z,H,2014-02-20,2014-02-20T23:59:59Z,H,COMPLETED,2014-02-20,,2013-08-23,2014-02-20,182,,,,,7,EPISTAXIS,EPISTAXIS,"RESPIRATORY, THORACIC AND MEDIASTINAL DISORDERS",,NOSE BLEED,,,HLT_0386,,HLGT_0577,,"RESPIRATORY, THORACIC AND MEDIASTINAL DISORDERS",,2014-01-03,2014-01-03,2014-01-03T00:00:00Z,,H,2014-01-03,2014-01-03,2014-01-03T23:59:59Z,,H,134,134,134,134,1,days,Y,,N,N,N,N,N,N,MILD,MILD,1,NONE,NONE,,E28,RECOVERED/RESOLVED,N,N,2014-01-10,2013-09-05T00:00:00Z,,
CDISCPILOT01,01-701-1148,1148,701,USA,AE,2013-08-23,2014-02-20,2013-08-23,2014-02-20,2014-02-20T15:07,,,,,,,,,,,,NA,2013-08-14,-9,57,YEARS,18-64,M,WHITE,White,NOT HISPANIC OR LATINO,Y,Xanomeline High Dose,Xan_Hi,Xanomeline High Dose,Xan_Hi,Xanomeline High Dose,Xanomeline High Dose,2013-08-23,2013-08-23T00:00:00Z,H,2014-02-20,2014-02-20T23:59:59Z,H,COMPLETED,2014-02-20,,2013-08-23,2014-02-20,182,,,,,10,ACTINIC KERATOSIS,ACTINIC KERATOSIS,SKIN AND SUBCUTANEOUS TISSUE DISORDERS,,ACTINIC KERATOSIS,,,HLT_0609,,HLGT_0490,,SKIN AND SUBCUTANEOUS TISSUE DISORDERS,,2014-02-12,2014-02-12,2014-02-12T00:00:00Z,,H,,,,,,174,174,,,,,Y,,N,N,N,N,N,N,MILD,MILD,1,NONE,NONE,,E27,NOT RECOVERED/NOT RESOLVED,N,N,2014-02-20,2014-02-12T00:00:00Z,54,mg
CDISCPILOT01,01-701-1153,1153,701,USA,AE,2013-09-23,2014-04-01,2013-09-23,2014-03-16,2014-04-01T14:25,,,,,,,,,,,,NA,2013-09-06,-17,79,YEARS,>64,F,WHITE,White,NOT HISPANIC OR LATINO,Y,Placebo,Pbo,Placebo,Pbo,Placebo,Placebo,2013-09-23,2013-09-23T00:00:00Z,H,2014-03-16,2014-03-16T23:59:59Z,H,COMPLETED,2014-04-01,,2013-09-23,2014-04-01,175,,,,,1,INCREASED APPETITE,INCREASED APPETITE,METABOLISM AND NUTRITION DISORDERS,,INCREASED APPETITE,,,HLT_0566,,HLGT_0769,,METABOLISM AND NUTRITION DISORDERS,,2013-10-13,2013-10-13,2013-10-13T00:00:00Z,,H,2013-11-06,2013-11-06,2013-11-06T23:59:59Z,,H,21,21,45,45,25,days,Y,Y,N,N,N,N,N,N,MILD,MILD,1,POSSIBLE,POSSIBLE,,E06,NOT RECOVERED/NOT RESOLVED,N,N,2013-10-19,2013-10-13T00:00:00Z,0,mg
CDISCPILOT01,01-701-1153,1153,701,USA,AE,2013-09-23,2014-04-01,2013-09-23,2014-03-16,2014-04-01T14:25,,,,,,,,,,,,NA,2013-09-06,-17,79,YEARS,>64,F,WHITE,White,NOT HISPANIC OR LATINO,Y,Placebo,Pbo,Placebo,Pbo,Placebo,Placebo,2013-09-23,2013-09-23T00:00:00Z,H,2014-03-16,2014-03-16T23:59:59Z,H,COMPLETED,2014-04-01,,2013-09-23,2014-04-01,175,,,,,2,INCREASED APPETITE,INCREASED APPETITE,METABOLISM AND NUTRITION DISORDERS,,INCREASED APPETITE,,,HLT_0566,,HLGT_0769,,METABOLISM AND NUTRITION DISORDERS,,2013-10-13,2013-10-13,2013-10-13T00:00:00Z,,H,2013-11-06,2013-11-06,2013-11-06T23:59:59Z,,H,21,21,45,45,25,days,Y,,N,N,N,N,N,N,MILD,MILD,1,POSSIBLE,POSSIBLE,,E06,RECOVERED/RESOLVED,N,N,2013-11-18,2013-10-13T00:00:00Z,0,mg
CDISCPILOT01,01-701-1180,1180,701,USA,AE,2013-02-12,2013-03-23,2013-02-12,2013-03-18,2013-04-07,,,,,,,,,,,,NA,2013-01-28,-15,56,YEARS,18-64,M,WHITE,White,NOT HISPANIC OR LATINO,Y,Xanomeline High Dose,Xan_Hi,Xanomeline High Dose,Xan_Hi,Xanomeline High Dose,Xanomeline High Dose,2013-02-12,2013-02-12T00:00:00Z,H,2013-03-18,2013-03-18T23:59:59Z,H,DISCONTINUED,2013-03-23,,2013-02-12,2013-03-23,35,,,,,7,APPLICATION SITE VESICLES,APPLICATION SITE VESICLES,GENERAL DISORDERS AND ADMINISTRATION SITE CONDITIONS,,APPLICATION SITE BLISTER,,,HLT_0180,,HLGT_0576,,GENERAL DISORDERS AND ADMINISTRATION SITE CONDITIONS,,2013-03-19,2013-03-19,2013-03-19T00:00:00Z,,H,,,,,,36,36,,,,,Y,Y,N,N,N,N,N,N,MODERATE,MODERATE,2,POSSIBLE,POSSIBLE,,E05,NOT RECOVERED/NOT RESOLVED,N,N,2013-03-23,2013-02-25T00:00:00Z,,
CDISCPILOT01,01-701-1180,1180,701,USA,AE,2013-02-12,2013-03-23,2013-02-12,2013-03-18,2013-04-07,,,,,,,,,,,,NA,2013-01-28,-15,56,YEARS,18-64,M,WHITE,White,NOT HISPANIC OR LATINO,Y,Xanomeline High Dose,Xan_Hi,Xanomeline High Dose,Xan_Hi,Xanomeline High Dose,Xanomeline High Dose,2013-02-12,2013-02-12T00:00:00Z,H,2013-03-18,2013-03-18T23:59:59Z,H,DISCONTINUED,2013-03-23,,2013-02-12,2013-03-23,35,,,,,8,APPLICATION SITE PRURITUS,APPLICATION SITE PRURITUS,GENERAL DISORDERS AND ADMINISTRATION SITE CONDITIONS,,APPLICATION SITE ITCHING,,,HLT_0317,,HLGT_0338,,GENERAL DISORDERS AND ADMINISTRATION SITE CONDITIONS,,2013-03-19,2013-03-19,2013-03-19T00:00:00Z,,H,,,,,,36,36,,,,,Y,,N,N,N,N,N,N,MODERATE,MODERATE,2,POSSIBLE,POSSIBLE,,E06,NOT RECOVERED/NOT RESOLVED,N,N,2013-03-23,2013-02-25T00:00:00Z,,
CDISCPILOT01,01-701-1180,1180,701,USA,AE,2013-02-12,2013-03-23,2013-02-12,2013-03-18,2013-04-07,,,,,,,,,,,,NA,2013-01-28,-15,56,YEARS,18-64,M,WHITE,White,NOT HISPANIC OR LATINO,Y,Xanomeline High Dose,Xan_Hi,Xanomeline High Dose,Xan_Hi,Xanomeline High Dose,Xanomeline High Dose,2013-02-12,2013-02-12T00:00:00Z,H,2013-03-18,2013-03-18T23:59:59Z,H,DISCONTINUED,2013-03-23,,2013-02-12,2013-03-23,35,,,,,9,APPLICATION SITE ERYTHEMA,APPLICATION SITE ERYTHEMA,GENERAL DISORDERS AND ADMINISTRATION SITE CONDITIONS,,APPLICATION SITE ERYTHEMA,,,HLT_0617,,HLGT_0152,,GENERAL DISORDERS AND ADMINISTRATION SITE CONDITIONS,,2013-03-19,2013-03-19,2013-03-19T00:00:00Z,,H,,,,,,36,36,,,,,Y,,N,N,N,N,N,N,MODERATE,MODERATE,2,POSSIBLE,POSSIBLE,,E07,NOT RECOVERED/NOT RESOLVED,N,N,2013-03-23,2013-02-25T00:00:00Z,,
CDISCPILOT01,01-701-1180,1180,701,USA,AE,2013-02-12,2013-03-23,2013-02-12,2013-03-18,2013-04-07,,,,,,,,,,,,NA,2013-01-28,-15,56,YEARS,18-64,M,WHITE,White,NOT HISPANIC OR LATINO,Y,Xanomeline High Dose,Xan_Hi,Xanomeline High Dose,Xan_Hi,Xanomeline High Dose,Xanomeline High Dose,2013-02-12,2013-02-12T00:00:00Z,H,2013-03-18,2013-03-18T23:59:59Z,H,DISCONTINUED,2013-03-23,,2013-02-12,2013-03-23,35,,,,,1,VOMITING,VOMITING,GASTROINTESTINAL DISORDERS,,VOMITING,,,HLT_0016,,HLGT_0350,,GASTROINTESTINAL DISORDERS,,2013-02-12,2013-02-12,2013-02-12T00:00:00Z,,H,2013-02-12,2013-02-12,2013-02-12T23:59:59Z,,H,1,1,1,1,1,days,Y,,N,N,N,N,N,N,MILD,MILD,1,NONE,NONE,,E01,NOT RECOVERED/NOT RESOLVED,N,N,2013-02-12,2013-02-12T00:00:00Z,54,mg
CDISCPILOT01,01-701-1180,1180,701,USA,AE,2013-02-12,2013-03-23,2013-02-12,2013-03-18,2013-04-07,,,,,,,,,,,,NA,2013-01-28,-15,56,YEARS,18-64,M,WHITE,White,NOT HISPANIC OR LATINO,Y,Xanomeline High Dose,Xan_Hi,Xanomeline High Dose,Xan_Hi,Xanomeline High Dose,Xanomeline High Dose,2013-02-12,2013-02-12T00:00:00Z,H,2013-03-18,2013-03-18T23:59:59Z,H,DISCONTINUED,2013-03-23,,2013-02-12,2013-03-23,35,,,,,2,VOMITING,VOMITING,GASTROINTESTINAL DISORDERS,,VOMITING,,,HLT_0016,,HLGT_0350,,GASTROINTESTINAL DISORDERS,,2013-02-12,2013-02-12,2013-02-12T00:00:00Z,,H,2013-02-12,2013-02-12,2013-02-12T23:59:59Z,,H,1,1,1,1,1,days,Y,,N,N,N,N,N,N,MILD,MILD,1,NONE,NONE,,E01,RECOVERED/RESOLVED,N,N,2013-02-25,2013-02-12T00:00:00Z,54,mg
CDISCPILOT01,01-701-1180,1180,701,USA,AE,2013-02-12,2013-03-23,2013-02-12,2013-03-18,2013-04-07,,,,,,,,,,,,NA,2013-01-28,-15,56,YEARS,18-64,M,WHITE,White,NOT HISPANIC OR LATINO,Y,Xanomeline High Dose,Xan_Hi,Xanomeline High Dose,Xan_Hi,Xanomeline High Dose,Xanomeline High Dose,2013-02-12,2013-02-12T00:00:00Z,H,2013-03-18,2013-03-18T23:59:59Z,H,DISCONTINUED,2013-03-23,,2013-02-12,2013-03-23,35,,,,,3,MICTURITION URGENCY,MICTURITION URGENCY,RENAL AND URINARY DISORDERS,,URINARY URGENCY,,,HLT_0294,,HLGT_0483,,RENAL AND URINARY DISORDERS,,2013-02-15,2013-02-15,2013-02-15T00:00:00Z,,H,2013-03-19,2013-03-19,2013-03-19T23:59:59Z,,H,4,4,36,36,33,days,Y,,N,N,N,N,N,N,MILD,MILD,1,POSSIBLE,POSSIBLE,,E02,NOT RECOVERED/NOT RESOLVED,N,N,2013-02-25,2013-02-15T00:00:00Z,54,mg
CDISCPILOT01,01-701-1180,1180,701,USA,AE,2013-02-12,2013-03-23,2013-02-12,2013-03-18,2013-04-07,,,,,,,,,,,,NA,2013-01-28,-15,56,YEARS,18-64,M,WHITE,White,NOT HISPANIC OR LATINO,Y,Xanomeline High Dose,Xan_Hi,Xanomeline High Dose,Xan_Hi,Xanomeline High Dose,Xanomeline High Dose,2013-02-12,2013-02-12T00:00:00Z,H,2013-03-18,2013-03-18T23:59:59Z,H,DISCONTINUED,2013-03-23,,2013-02-12,2013-03-23,35,,,,,6,MICTURITION URGENCY,MICTURITION URGENCY,RENAL AND URINARY DISORDERS,,URINARY URGENCY,,,HLT_0294,,HLGT_0483,,RENAL AND URINARY DISORDERS,,2013-02-15,2013-02-15,2013-02-15T00:00:00Z,,H,2013-03-19,2013-03-19,2013-03-19T23:59:59Z,,H,4,4,36,36,33,days,Y,,N,N,N,N,N,N,MILD,MILD,1,POSSIBLE,POSSIBLE,,E02,RECOVERED/RESOLVED,N,N,2013-03-23,2013-02-15T00:00:00Z,54,mg
CDISCPILOT01,01-701-1180,1180,701,USA,AE,2013-02-12,2013-03-23,2013-02-12,2013-03-18,2013-04-07,,,,,,,,,,,,NA,2013-01-28,-15,56,YEARS,18-64,M,WHITE,White,NOT HISPANIC OR LATINO,Y,Xanomeline High Dose,Xan_Hi,Xanomeline High Dose,Xan_Hi,Xanomeline High Dose,Xanomeline High Dose,2013-02-12,2013-02-12T00:00:00Z,H,2013-03-18,2013-03-18T23:59:59Z,H,DISCONTINUED,2013-03-23,,2013-02-12,2013-03-23,35,,,,,5,NASOPHARYNGITIS,NASOPHARYNGITIS,INFECTIONS AND INFESTATIONS,,COLD,,,HLT_0036,,HLGT_0709,,INFECTIONS AND INFESTATIONS,,2013-03-06,2013-03-06,2013-03-06T00:00:00Z,,H,2013-03-07,2013-03-07,2013-03-07T23:59:59Z,,H,23,23,24,24,2,days,Y,,N,N,N,N,N,N,MILD,MILD,1,NONE,NONE,,E03,RECOVERED/RESOLVED,N,N,2013-03-11,2013-02-25T00:00:00Z,,
CDISCPILOT01,01-701-1181,1181,701,USA,AE,2013-12-05,2013-12-12,2013-12-05,2013-12-09,2014-05-23,,2014-05-23,,,,,,,,,,NA,2013-11-26,-9,79,YEARS,>64,F,WHITE,White,NOT HISPANIC OR LATINO,Y,Xanomeline High Dose,Xan_Hi,Xanomeline Low Dose,Xan_Lo,Xanomeline High Dose,Xanomeline Low Dose,2013-12-05,2013-12-05T00:00:00Z,H,2013-12-09,2013-12-09T23:59:59Z,H,DISCONTINUED,2013-12-12,,2013-12-05,2013-12-12,5,,,,,1,AGITATION,AGITATION,PSYCHIATRIC DISORDERS,,AGITATION,,,HLT_0140,,HLGT_0170,,PSYCHIATRIC DISORDERS,,2013-12-09,2013-12-09,2013-12-09T00:00:00Z,,H,2013-12-09,2013-12-09,2013-12-09T23:59:59Z,,H,5,5,5,5,1,days,Y,Y,N,N,N,N,N,N,MODERATE,MODERATE,2,NONE,NONE,,E16,RECOVERED/RESOLVED,N,N,2013-12-12,2013-12-09T00:00:00Z,54,mg
CDISCPILOT01,01-701-1188,1188,701,USA,AE,2013-02-15,2013-03-25,2013-02-15,2013-03-24,2013-08-04,,2013-08-04,,,,,,,,,,NA,2013-02-03,-12,71,YEARS,>64,M,WHITE,White,NOT HISPANIC OR LATINO,Y,Xanomeline Low Dose,Xan_Lo,Xanomeline Low Dose,Xan_Lo,Xanomeline Low Dose,Xanomeline Low Dose,2013-02-15,2013-02-15T00:00:00Z,H,2013-03-24,2013-03-24T23:59:59Z,H,DISCONTINUED,2013-03-25,,2013-02-15,2013-03-25,38,,,,,3,ERYTHEMA,ERYTHEMA,SKIN AND SUBCUTANEOUS TISSUE DISORDERS,,ERYTHEMA,,,HLT_0284,,HLGT_0192,,SKIN AND SUBCUTANEOUS TISSUE DISORDERS,,2013-02-16,2013-02-16,2013-02-16T00:00:00Z,,H,,,,,,2,2,,,,,Y,Y,N,N,N,N,N,N,MODERATE,MODERATE,2,PROBABLE,PROBABLE,,E04,NOT RECOVERED/NOT RESOLVED,N,N,2013-03-16,2013-02-16T00:00:00Z,54,mg
CDISCPILOT01,01-701-1188,1188,701,USA,AE,2013-02-15,2013-03-25,2013-02-15,2013-03-24,2013-08-04,,2013-08-04,,,,,,,,,,NA,2013-02-03,-12,71,YEARS,>64,M,WHITE,White,NOT HISPANIC OR LATINO,Y,Xanomeline Low Dose,Xan_Lo,Xanomeline Low Dose,Xan_Lo,Xanomeline Low Dose,Xanomeline Low Dose,2013-02-15,2013-02-15T00:00:00Z,H,2013-03-24,2013-03-24T23:59:59Z,H,DISCONTINUED,2013-03-25,,2013-02-15,2013-03-25,38,,,,,4,PRURITUS,PRURITUS,SKIN AND SUBCUTANEOUS TISSUE DISORDERS,,ITCHING,,,HLT_0778,,HLGT_0695,,SKIN AND SUBCUTANEOUS TISSUE DISORDERS,,2013-02-16,2013-02-16,2013-02-16T00:00:00Z,,H,,,,,,2,2,,,,,Y,,N,N,N,N,N,N,MODERATE,MODERATE,2,PROBABLE,PROBABLE,,E05,NOT RECOVERED/NOT RESOLVED,N,N,2013-03-16,2013-02-16T00:00:00Z,54,mg
CDISCPILOT01,01-701-1188,1188,701,USA,AE,2013-02-15,2013-03-25,2013-02-15,2013-03-24,2013-08-04,,2013-08-04,,,,,,,,,,NA,2013-02-03,-12,71,YEARS,>64,M,WHITE,White,NOT HISPANIC OR LATINO,Y,Xanomeline Low Dose,Xan_Lo,Xanomeline Low Dose,Xan_Lo,Xanomeline Low Dose,Xanomeline Low Dose,2013-02-15,2013-02-15T00:00:00Z,H,2013-03-24,2013-03-24T23:59:59Z,H,DISCONTINUED,2013-03-25,,2013-02-15,2013-03-25,38,,,,,6,URTICARIA,URTICARIA,SKIN AND SUBCUTANEOUS TISSUE DISORDERS,,WELTS,,,HLT_0420,,HLGT_0705,,SKIN AND SUBCUTANEOUS TISSUE DISORDERS,,2013-03-04,2013-03-04,2013-03-04T00:00:00Z,,H,,,,,,18,18,,,,,Y,,N,N,N,N,N,N,MODERATE,MODERATE,2,PROBABLE,PROBABLE,,E06,NOT RECOVERED/NOT RESOLVED,N,N,2013-03-25,2013-03-04T00:00:00Z,54,mg
CDISCPILOT01,01-701-1188,1188,701,USA,AE,2013-02-15,2013-03-25,2013-02-15,2013-03-24,2013-08-04,,2013-08-04,,,,,,,,,,NA,2013-02-03,-12,71,YEARS,>64,M,WHITE,White,NOT HISPANIC OR LATINO,Y,Xanomeline Low Dose,Xan_Lo,Xanomeline Low Dose,Xan_Lo,Xanomeline Low Dose,Xanomeline Low Dose,2013-02-15,2013-02-15T00:00:00Z,H,2013-03-24,2013-03-24T23:59:59Z,H,DISCONTINUED,2013-03-25,,2013-02-15,2013-03-25,38,,,,,1,ERYTHEMA,ERYTHEMA,SKIN AND SUBCUTANEOUS TISSUE DISORDERS,,ERYTHEMA,,,HLT_0284,,HLGT_0192,,SKIN AND SUBCUTANEOUS TISSUE DISORDERS,,2013-02-16,2013-02-16,2013-02-16T00:00:00Z,,H,,,,,,2,2,,,,,Y,,N,N,N,N,N,N,MILD,MILD,1,PROBABLE,PROBABLE,,E04,NOT RECOVERED/NOT RESOLVED,N,N,2013-03-02,2013-02-16T00:00:00Z,54,mg
CDISCPILOT01,01-701-1188,1188,701,USA,AE,2013-02-15,2013-03-25,2013-02-15,2013-03-24,2013-08-04,,2013-08-04,,,,,,,,,,NA,2013-02-03,-12,71,YEARS,>64,M,WHITE,White,NOT HISPANIC OR LATINO,Y,Xanomeline Low Dose,Xan_Lo,Xanomeline Low Dose,Xan_Lo,Xanomeline Low Dose,Xanomeline Low Dose,2013-02-15,2013-02-15T00:00:00Z,H,2013-03-24,2013-03-24T23:59:59Z,H,DISCONTINUED,2013-03-25,,2013-02-15,2013-03-25,38,,,,,2,PRURITUS,PRURITUS,SKIN AND SUBCUTANEOUS TISSUE DISORDERS,,ITCHING,,,HLT_0778,,HLGT_0695,,SKIN AND SUBCUTANEOUS TISSUE DISORDERS,,2013-02-16,2013-02-16,2013-02-16T00:00:00Z,,H,,,,,,2,2,,,,,Y,,N,N,N,N,N,N,MILD,MILD,1,PROBABLE,PROBABLE,,E05,NOT RECOVERED/NOT RESOLVED,N,N,2013-03-02,2013-02-16T00:00:00Z,54,mg
CDISCPILOT01,01-701-1188,1188,701,USA,AE,2013-02-15,2013-03-25,2013-02-15,2013-03-24,2013-08-04,,2013-08-04,,,,,,,,,,NA,2013-02-03,-12,71,YEARS,>64,M,WHITE,White,NOT HISPANIC OR LATINO,Y,Xanomeline Low Dose,Xan_Lo,Xanomeline Low Dose,Xan_Lo,Xanomeline Low Dose,Xanomeline Low Dose,2013-02-15,2013-02-15T00:00:00Z,H,2013-03-24,2013-03-24T23:59:59Z,H,DISCONTINUED,2013-03-25,,2013-02-15,2013-03-25,38,,,,,5,URTICARIA,URTICARIA,SKIN AND SUBCUTANEOUS TISSUE DISORDERS,,WELTS,,,HLT_0420,,HLGT_0705,,SKIN AND SUBCUTANEOUS TISSUE DISORDERS,,2013-03-04,2013-03-04,2013-03-04T00:00:00Z,,H,,,,,,18,18,,,,,Y,,N,N,N,N,N,N,MILD,MILD,1,PROBABLE,PROBABLE,,E06,NOT RECOVERED/NOT RESOLVED,N,N,2013-03-16,2013-03-04T00:00:00Z,54,mg
CDISCPILOT01,01-701-1188,1188,701,USA,AE,2013-02-15,2013-03-25,2013-02-15,2013-03-24,2013-08-04,,2013-08-04,,,,,,,,,,NA,2013-02-03,-12,71,YEARS,>64,M,WHITE,White,NOT HISPANIC OR LATINO,Y,Xanomeline Low Dose,Xan_Lo,Xanomeline Low Dose,Xan_Lo,Xanomeline Low Dose,Xanomeline Low Dose,2013-02-15,2013-02-15T00:00:00Z,H,2013-03-24,2013-03-24T23:59:59Z,H,DISCONTINUED,2013-03-25,,2013-02-15,2013-03-25,38,,,,,7,APPLICATION SITE URTICARIA,APPLICATION SITE URTICARIA,GENERAL DISORDERS AND ADMINISTRATION SITE CONDITIONS,,APPLICATION SITE URTICARIA,,,HLT_0196,,HLGT_0233,,GENERAL DISORDERS AND ADMINISTRATION SITE CONDITIONS,,2013-03-21,2013-03-21,2013-03-21T00:00:00Z,,H,,,,,,35,35,,,,,Y,,N,N,N,N,N,N,MILD,MILD,1,PROBABLE,PROBABLE,,E09,NOT RECOVERED/NOT RESOLVED,N,N,2013-03-25,2013-03-21T00:00:00Z,54,mg
CDISCPILOT01,01-701-1188,1188,701,USA,AE,2013-02-15,2013-03-25,2013-02-15,2013-03-24,2013-08-04,,2013-08-04,,,,,,,,,,NA,2013-02-03,-12,71,YEARS,>64,M,WHITE,White,NOT HISPANIC OR LATINO,Y,Xanomeline Low Dose,Xan_Lo,Xanomeline Low Dose,Xan_Lo,Xanomeline Low Dose,Xanomeline Low Dose,2013-02-15,2013-02-15T00:00:00Z,H,2013-03-24,2013-03-24T23:59:59Z,H,DISCONTINUED,2013-03-25,,2013-02-15,2013-03-25,38,,,,,8,URTICARIA,URTICARIA,SKIN AND SUBCUTANEOUS TISSUE DISORDERS,,WELTS,,,HLT_0420,,HLGT_0705,,SKIN AND SUBCUTANEOUS TISSUE DISORDERS,,2013-03-21,2013-03-21,2013-03-21T00:00:00Z,,H,,,,,,35,35,,,,,Y,,N,N,N,N,N,N,MILD,MILD,1,PROBABLE,PROBABLE,,E10,NOT RECOVERED/NOT RESOLVED,N,N,2013-03-25,2013-03-21T00:00:00Z,54,mg
CDISCPILOT01,01-701-1192,1192,701,USA,AE,2012-07-22,2013-01-20,2012-07-22,2013-01-20,2013-01-20T15:47,,,,,,,,,,,,NA,2012-07-08,-14,80,YEARS,>64,F,WHITE,White,NOT HISPANIC OR LATINO,Y,Xanomeline Low Dose,Xan_Lo,Xanomeline Low Dose,Xan_Lo,Xanomeline Low Dose,Xanomeline Low Dose,2012-07-22,2012-07-22T00:00:00Z,H,2013-01-20,2013-01-20T23:59:59Z,H,COMPLETED,2013-01-20,,2012-07-22,2013-01-20,183,,,,,7,PNEUMONIA,PNEUMONIA,INFECTIONS AND INFESTATIONS,,PNEUMONIA,,,HLT_0251,,HLGT_0671,,INFECTIONS AND INFESTATIONS,,2012-09-07,2012-09-07,2012-09-07T00:00:00Z,,H,2012-10-06,2012-10-06,2012-10-06T23:59:59Z,,H,48,48,77,77,30,days,Y,Y,N,N,N,Y,N,N,MODERATE,MODERATE,2,NONE,NONE,,E10,NOT RECOVERED/NOT RESOLVED,N,N,2012-09-23,2012-09-07T00:00:00Z,54,mg
CDISCPILOT01,01-701-1192,1192,701,USA,AE,2012-07-22,2013-01-20,2012-07-22,2013-01-20,2013-01-20T15:47,,,,,,,,,,,,NA,2012-07-08,-14,80,YEARS,>64,F,WHITE,White,NOT HISPANIC OR LATINO,Y,Xanomeline Low Dose,Xan_Lo,Xanomeline Low Dose,Xan_Lo,Xanomeline Low Dose,Xanomeline Low Dose,2012-07-22,2012-07-22T00:00:00Z,H,2013-01-20,2013-01-20T23:59:59Z,H,COMPLETED,2013-01-20,,2012-07-22,2013-01-20,183,,,,,8,MUSCULAR WEAKNESS,MUSCULAR WEAKNESS,MUSCULOSKELETAL AND CONNECTIVE TISSUE DISORDERS,,MUSCULAR WEAKNESS,,,HLT_0444,,HLGT_0211,,MUSCULOSKELETAL AND CONNECTIVE TISSUE DISORDERS,,2012-09-07,2012-09-07,2012-09-07T00:00:00Z,,H,2012-09-30,2012-09-30,2012-09-30T23:59:59Z,,H,48,48,71,71,24,days,Y,,N,N,N,N,N,N,MODERATE,MODERATE,2,NONE,NONE,,E11,NOT RECOVERED/NOT RESOLVED,N,N,2012-09-23,2012-09-07T00:00:00Z,54,mg
CDISCPILOT01,01-701-1192,1192,701,USA,AE,2012-07-22,2013-01-20,2012-07-22,2013-01-20,2013-01-20T15:47,,,,,,,,,,,,NA,2012-07-08,-14,80,YEARS,>64,F,WHITE,White,NOT HISPANIC OR LATINO,Y,Xanomeline Low Dose,Xan_Lo,Xanomeline Low Dose,Xan_Lo,Xanomeline Low Dose,Xanomeline Low Dose,2012-07-22,2012-07-22T00:00:00Z,H,2013-01-20,2013-01-20T23:59:59Z,H,COMPLETED,2013-01-20,,2012-07-22,2013-01-20,183,,,,,10,PNEUMONIA,PNEUMONIA,INFECTIONS AND INFESTATIONS,,PNEUMONIA,,,HLT_0251,,HLGT_0671,,INFECTIONS AND INFESTATIONS,,2012-09-07,2012-09-07,2012-09-07T00:00:00Z,,H,2012-10-06,2012-10-06,2012-10-06T23:59:59Z,,H,48,48,77,77,30,days,Y,,N,N,N,Y,N,N,MODERATE,MODERATE,2,NONE,NONE,,E10,RECOVERED/RESOLVED,N,N,2012-10-14,2012-09-07T00:00:00Z,54,mg
CDISCPILOT01,01-701-1192,1192,701,USA,AE,2012-07-22,2013-01-20,2012-07-22,2013-01-20,2013-01-20T15:47,,,,,,,,,,,,NA,2012-07-08,-14,80,YEARS,>64,F,WHITE,White,NOT HISPANIC OR LATINO,Y,Xanomeline Low Dose,Xan_Lo,Xanomeline Low Dose,Xan_Lo,Xanomeline Low Dose,Xanomeline Low Dose,2012-07-22,2012-07-22T00:00:00Z,H,2013-01-20,2013-01-20T23:59:59Z,H,COMPLETED,2013-01-20,,2012-07-22,2013-01-20,183,,,,,11,MUSCULAR WEAKNESS,MUSCULAR WEAKNESS,MUSCULOSKELETAL AND CONNECTIVE TISSUE DISORDERS,,MUSCULAR WEAKNESS,,,HLT_0444,,HLGT_0211,,MUSCULOSKELETAL AND CONNECTIVE TISSUE DISORDERS,,2012-09-07,2012-09-07,2012-09-07T00:00:00Z,,H,2012-09-30,2012-09-30,2012-09-30T23:59:59Z,,H,48,48,71,71,24,days,Y,,N,N,N,N,N,N,MODERATE,MODERATE,2,NONE,NONE,,E11,RECOVERED/RESOLVED,N,N,2012-10-14,2012-09-07T00:00:00Z,54,mg
CDISCPILOT01,01-701-1192,1192,701,USA,AE,2012-07-22,2013-01-20,2012-07-22,2013-01-20,2013-01-20T15:47,,,,,,,,,,,,NA,2012-07-08,-14,80,YEARS,>64,F,WHITE,White,NOT HISPANIC OR LATINO,Y,Xanomeline Low Dose,Xan_Lo,Xanomeline Low Dose,Xan_Lo,Xanomeline Low Dose,Xanomeline Low Dose,2012-07-22,2012-07-22T00:00:00Z,H,2013-01-20,2013-01-20T23:59:59Z,H,COMPLETED,2013-01-20,,2012-07-22,2013-01-20,183,,,,,1,NASAL MUCOSA BIOPSY,NASAL MUCOSA BIOPSY,INVESTIGATIONS,,NASAL MUCOSA BIOPSY,,,HLT_0680,,HLGT_0396,,INVESTIGATIONS,,2012-08-03,2012-08-03,2012-08-03T00:00:00Z,,H,2012-08-03,2012-08-03,2012-08-03T23:59:59Z,,H,13,13,13,13,1,days,Y,,N,N,N,N,N,N,MILD,MILD,1,NONE,NONE,,E06,RECOVERED/RESOLVED,N,N,2012-08-07,2012-08-03T00:00:00Z,54,mg
CDISCPILOT01,01-701-1192,1192,701,USA,AE,2012-07-22,2013-01-20,2012-07-22,2013-01-20,2013-01-20T15:47,,,,,,,,,,,,NA,2012-07-08,-14,80,YEARS,>64,F,WHITE,White,NOT HISPANIC OR LATINO,Y,Xanomeline Low Dose,Xan_Lo,Xanomeline Low Dose,Xan_Lo,Xanomeline Low Dose,Xanomeline Low Dose,2012-07-22,2012-07-22T00:00:00Z,H,2013-01-20,2013-01-20T23:59:59Z,H,COMPLETED,2013-01-20,,2012-07-22,2013-01-20,183,,,,,2,SECRETION DISCHARGE,SECRETION DISCHARGE,GENERAL DISORDERS AND ADMINISTRATION SITE CONDITIONS,,SECRETION DISCHARGE,,,HLT_0683,,HLGT_0575,,GENERAL DISORDERS AND ADMINISTRATION SITE CONDITIONS,,2012-08-07,2012-08-07,2012-08-07T00:00:00Z,,H,2012-09-14,2012-09-14,2012-09-14T23:59:59Z,,H,17,17,55,55,39,days,Y,,N,N,N,N,N,N,MILD,MILD,1,NONE,NONE,,E08,NOT RECOVERED/NOT RESOLVED,N,N,2012-08-07,2012-08-07T00:00:00Z,54,mg
CDISCPILOT01,01-701-1192,1192,701,USA,AE,2012-07-22,2013-01-20,2012-07-22,2013-01-20,2013-01-20T15:47,,,,,,,,,,,,NA,2012-07-08,-14,80,YEARS,>64,F,WHITE,White,NOT HISPANIC OR LATINO,Y,Xanomeline Low Dose,Xan_Lo,Xanomeline Low Dose,Xan_Lo,Xanomeline Low Dose,Xanomeline Low Dose,2012-07-22,2012-07-22T00:00:00Z,H,2013-01-20,2013-01-20T23:59:59Z,H,COMPLETED,2013-01-20,,2012-07-22,2013-01-20,183,,,,,3,ERYTHEMA,ERYTHEMA,SKIN AND SUBCUTANEOUS TISSUE DISORDERS,,ERYTHEMA FACIAL,,,HLT_0284,,HLGT_0192,,SKIN AND SUBCUTANEOUS TISSUE DISORDERS,,2012-08-07,2012-08-07,2012-08-07T00:00:00Z,,H,2012-09-14,2012-09-14,2012-09-14T23:59:59Z,,H,17,17,55,55,39,days,Y,,N,N,N,N,N,N,MILD,MILD,1,NONE,NONE,,E09,NOT RECOVERED/NOT RESOLVED,N,N,2012-08-07,2012-08-07T00:00:00Z,54,mg
CDISCPILOT01,01-701-1192,1192,701,USA,AE,2012-07-22,2013-01-20,2012-07-22,2013-01-20,2013-01-20T15:47,,,,,,,,,,,,NA,2012-07-08,-14,80,YEARS,>64,F,WHITE,White,NOT HISPANIC OR LATINO,Y,Xanomeline Low Dose,Xan_Lo,Xanomeline Low Dose,Xan_Lo,Xanomeline Low Dose,Xanomeline Low Dose,2012-07-22,2012-07-22T00:00:00Z,H,2013-01-20,2013-01-20T23:59:59Z,H,COMPLETED,2013-01-20,,2012-07-22,2013-01-20,183,,,,,5,SECRETION DISCHARGE,SECRETION DISCHARGE,GENERAL DISORDERS AND ADMINISTRATION SITE CONDITIONS,,SECRETION DISCHARGE,,,HLT_0683,,HLGT_0575,,GENERAL DISORDERS AND ADMINISTRATION SITE CONDITIONS,,2012-08-07,2012-08-07,2012-08-07T00:00:00Z,,H,2012-09-14,2012-09-14,2012-09-14T23:59:59Z,,H,17,17,55,55,39,days,Y,,N,N,N,N,N,N,MILD,MILD,1,NONE,NONE,,E08,RECOVERED/RESOLVED,N,N,2012-09-23,2012-08-07T00:00:00Z,54,mg
CDISCPILOT01,01-701-1192,1192,701,USA,AE,2012-07-22,2013-01-20,2012-07-22,2013-01-20,2013-01-20T15:47,,,,,,,,,,,,NA,2012-07-08,-14,80,YEARS,>64,F,WHITE,White,NOT HISPANIC OR LATINO,Y,Xanomeline Low Dose,Xan_Lo,Xanomeline Low Dose,Xan_Lo,Xanomeline Low Dose,Xanomeline Low Dose,2012-07-22,2012-07-22T00:00:00Z,H,2013-01-20,2013-01-20T23:59:59Z,H,COMPLETED,2013-01-20,,2012-07-22,2013-01-20,183,,,,,6,ERYTHEMA,ERYTHEMA,SKIN AND SUBCUTANEOUS TISSUE DISORDERS,,ERYTHEMA FACIAL,,,HLT_0284,,HLGT_0192,,SKIN AND SUBCUTANEOUS TISSUE DISORDERS,,2012-08-07,2012-08-07,2012-08-07T00:00:00Z,,H,2012-09-14,2012-09-14,2012-09-14T23:59:59Z,,H,17,17,55,55,39,days,Y,,N,N,N,N,N,N,MILD,MILD,1,NONE,NONE,,E09,RECOVERED/RESOLVED,N,N,2012-09-23,2012-08-07T00:00:00Z,54,mg
CDISCPILOT01,01-701-1192,1192,701,USA,AE,2012-07-22,2013-01-20,2012-07-22,2013-01-20,2013-01-20T15:47,,,,,,,,,,,,NA,2012-07-08,-14,80,YEARS,>64,F,WHITE,White,NOT HISPANIC OR LATINO,Y,Xanomeline Low Dose,Xan_Lo,Xanomeline Low Dose,Xan_Lo,Xanomeline Low Dose,Xanomeline Low Dose,2012-07-22,2012-07-22T00:00:00Z,H,2013-01-20,2013-01-20T23:59:59Z,H,COMPLETED,2013-01-20,,2012-07-22,2013-01-20,183,,,,,12,APPLICATION SITE IRRITATION,APPLICATION SITE IRRITATION,GENERAL DISORDERS AND ADMINISTRATION SITE CONDITIONS,,APPLICATION SITE BURNING,,,HLT_0061,,HLGT_0346,,GENERAL DISORDERS AND ADMINISTRATION SITE CONDITIONS,,2012-12-05,2012-12-05,2012-12-05T00:00:00Z,,H,2012-12-16,2012-12-16,2012-12-16T23:59:59Z,,H,137,137,148,148,12,days,Y,,N,N,N,N,N,N,MILD,MILD,1,PROBABLE,PROBABLE,,E12,NOT RECOVERED/NOT RESOLVED,N,N,2012-12-13,2012-12-05T00:00:00Z,54,mg
CDISCPILOT01,01-701-1192,1192,701,USA,AE,2012-07-22,2013-01-20,2012-07-22,2013-01-20,2013-01-20T15:47,,,,,,,,,,,,NA,2012-07-08,-14,80,YEARS,>64,F,WHITE,White,NOT HISPANIC OR LATINO,Y,Xanomeline Low Dose,Xan_Lo,Xanomeline Low Dose,Xan_Lo,Xanomeline Low Dose,Xanomeline Low Dose,2012-07-22,2012-07-22T00:00:00Z,H,2013-01-20,2013-01-20T23:59:59Z,H,COMPLETED,2013-01-20,,2012-07-22,2013-01-20,183,,,,,13,APPLICATION SITE ERYTHEMA,APPLICATION SITE ERYTHEMA,GENERAL DISORDERS AND ADMINISTRATION SITE CONDITIONS,,APPLICATION SITE REDNESS,,,HLT_0617,,HLGT_0152,,GENERAL DISORDERS AND ADMINISTRATION SITE CONDITIONS,,2012-12-05,2012-12-05,2012-12-05T00:00:00Z,,H,,,,,,137,137,,,,,Y,,N,N,N,N,N,N,MILD,MILD,1,PROBABLE,PROBABLE,,E13,NOT RECOVERED/NOT RESOLVED,N,N,2012-12-13,2012-12-05T00:00:00Z,54,mg
CDISCPILOT01,01-701-1192,1192,701,USA,AE,2012-07-22,2013-01-20,2012-07-22,2013-01-20,2013-01-20T15:47,,,,,,,,,,,,NA,2012-07-08,-14,80,YEARS,>64,F,WHITE,White,NOT HISPANIC OR LATINO,Y,Xanomeline Low Dose,Xan_Lo,Xanomeline Low Dose,Xan_Lo,Xanomeline Low Dose,Xanomeline Low Dose,2012-07-22,2012-07-22T00:00:00Z,H,2013-01-20,2013-01-20T23:59:59Z,H,COMPLETED,2013-01-20,,2012-07-22,2013-01-20,183,,,,,14,APPLICATION SITE PRURITUS,APPLICATION SITE PRURITUS,GENERAL DISORDERS AND ADMINISTRATION SITE CONDITIONS,,APPLICATION SITE ITCHING,,,HLT_0317,,HLGT_0338,,GENERAL DISORDERS AND ADMINISTRATION SITE CONDITIONS,,2012-12-05,2012-12-05,2012-12-05T00:00:00Z,,H,,,,,,137,137,,,,,Y,,N,N,N,N,N,N,MILD,MILD,1,PROBABLE,PROBABLE,,E14,NOT RECOVERED/NOT RESOLVED,N,N,2012-12-13,2012-12-05T00:00:00Z,54,mg
CDISCPILOT01,01-701-1192,1192,701,USA,AE,2012-07-22,2013-01-20,2012-07-22,2013-01-20,2013-01-20T15:47,,,,,,,,,,,,NA,2012-07-08,-14,80,YEARS,>64,F,WHITE,White,NOT HISPANIC OR LATINO,Y,Xanomeline Low Dose,Xan_Lo,Xanomeline Low Dose,Xan_Lo,Xanomeline Low Dose,Xanomeline Low Dose,2012-07-22,2012-07-22T00:00:00Z,H,2013-01-20,2013-01-20T23:59:59Z,H,COMPLETED,2013-01-20,,2012-07-22,2013-01-20,183,,,,,15,APPLICATION SITE IRRITATION,APPLICATION SITE IRRITATION,GENERAL DISORDERS AND ADMINISTRATION SITE CONDITIONS,,APPLICATION SITE BURNING,,,HLT_0061,,HLGT_0346,,GENERAL DISORDERS AND ADMINISTRATION SITE CONDITIONS,,2012-12-05,2012-12-05,2012-12-05T00:00:00Z,,H,2012-12-16,2012-12-16,2012-12-16T23:59:59Z,,H,137,137,148,148,12,days,Y,,N,N,N,N,N,N,MILD,MILD,1,PROBABLE,PROBABLE,,E12,RECOVERED/RESOLVED,N,N,2013-01-11,2012-12-05T00:00:00Z,54,mg
CDISCPILOT01,01-701-1203,1203,701,USA,AE,2013-02-02,2013-08-03,2013-02-02,2013-08-03,2013-08-03T10:10,,,,,,,,,,,,NA,2013-01-25,-8,81,YEARS,>64,F,BLACK OR AFRICAN AMERICAN,Non-white,NOT HISPANIC OR LATINO,Y,Placebo,Pbo,Placebo,Pbo,Placebo,Placebo,2013-02-02,2013-02-02T00:00:00Z,H,2013-08-03,2013-08-03T23:59:59Z,H,COMPLETED,2013-08-03,,2013-02-02,2013-08-03,183,,,,,1,EYE LASER SURGERY,EYE LASER SURGERY,SURGICAL AND MEDICAL PROCEDURES,,EYE LASER SURGERY,,,HLT_0355,,HLGT_0189,,SURGICAL AND MEDICAL PROCEDURES,,2013-03-21,2013-03-21,2013-03-21T00:00:00Z,,H,2013-03-21,2013-03-21,2013-03-21T23:59:59Z,,H,48,48,48,48,1,days,Y,Y,N,N,N,N,N,N,MILD,MILD,1,NONE,NONE,,E05,RECOVERED/RESOLVED,N,N,2013-03-30,2013-03-21T00:00:00Z,0,mg
CDISCPILOT01,01-701-1211,1211,701,USA,AE,2012-11-15,2013-01-14,2012-11-15,2013-01-12,2013-01-14,,,2013-01-14,61,Y,2,<= 30,Y,,AE,,NA,2012-10-30,-16,76,YEARS,>64,F,WHITE,White,NOT HISPANIC OR LATINO,Y,Xanomeline Low Dose,Xan_Lo,Xanomeline Low Dose,Xan_Lo,Xanomeline Low Dose,Xanomeline Low Dose,2012-11-15,2012-11-15T00:00:00Z,H,2013-01-12,2013-01-12T23:59:59Z,H,DISCONTINUED,2013-01-14,,2012-11-15,2013-01-14,59,2013-01-14,,SUDDEN DEATH,ADVERSE EVENT,9,SUDDEN DEATH,SUDDEN DEATH,GENERAL DISORDERS AND ADMINISTRATION SITE CONDITIONS,,SUDDEN DEATH,,,HLT_0142,,HLGT_0272,,GENERAL DISORDERS AND ADMINISTRATION SITE CONDITIONS,,2013-01-14,2013-01-14,2013-01-14T00:00:00Z,,H,2013-01-14,2013-01-14,2013-01-14T23:59:59Z,,H,61,61,61,61,1,days,Y,Y,N,Y,Y,N,N,N,SEVERE,SEVERE,3,NONE,NONE,,E11,FATAL,N,N,2013-01-14,2013-01-12T00:00:00Z,,
CDISCPILOT01,01-701-1211,1211,701,USA,AE,2012-11-15,2013-01-14,2012-11-15,2013-01-12,2013-01-14,,,2013-01-14,61,Y,2,<= 30,Y,,AE,,NA,2012-10-30,-16,76,YEARS,>64,F,WHITE,White,NOT HISPANIC OR LATINO,Y,Xanomeline Low Dose,Xan_Lo,Xanomeline Low Dose,Xan_Lo,Xanomeline Low Dose,Xanomeline Low Dose,2012-11-15,2012-11-15T00:00:00Z,H,2013-01-12,2013-01-12T23:59:59Z,H,DISCONTINUED,2013-01-14,,2012-11-15,2013-01-14,59,2013-01-14,,SUDDEN DEATH,ADVERSE EVENT,2,JOINT DISLOCATION,JOINT DISLOCATION,"INJURY, POISONING AND PROCEDURAL COMPLICATIONS",,SHOULDER DISLOCATION,,,HLT_0035,,HLGT_0227,,"INJURY, POISONING AND PROCEDURAL COMPLICATIONS",,2012-11-21,2012-11-21,2012-11-21T00:00:00Z,,H,2012-11-21,2012-11-21,2012-11-21T23:59:59Z,,H,7,7,7,7,1,days,Y,,N,N,N,N,N,N,MODERATE,MODERATE,2,NONE,NONE,,E03,RECOVERED/RESOLVED,N,N,2012-11-28,2012-11-21T00:00:00Z,54,mg
CDISCPILOT01,01-701-1211,1211,701,USA,AE,2012-11-15,2013-01-14,2012-11-15,2013-01-12,2013-01-14,,,2013-01-14,61,Y,2,<= 30,Y,,AE,,NA,2012-10-30,-16,76,YEARS,>64,F,WHITE,White,NOT HISPANIC OR LATINO,Y,Xanomeline Low Dose,Xan_Lo,Xanomeline Low Dose,Xan_Lo,Xanomeline Low Dose,Xanomeline Low Dose,2012-11-15,2012-11-15T00:00:00Z,H,2013-01-12,2013-01-12T23:59:59Z,H,DISCONTINUED,2013-01-14,,2012-11-15,2013-01-14,59,2013-01-14,,SUDDEN DEATH,ADVERSE EVENT,7,CONFUSIONAL STATE,CONFUSIONAL STATE,PSYCHIATRIC DISORDERS,,CONFUSION,,,HLT_0642,,HLGT_0329,,PSYCHIATRIC DISORDERS,,2013-01-11,2013-01-11,2013-01-11T00:00:00Z,,H,,,,,,58,58,,,,,Y,,N,N,N,N,N,N,MODERATE,MODERATE,2,NONE,NONE,,E12,NOT RECOVERED/NOT RESOLVED,N,N,2013-01-14,2013-01-11T00:00:00Z,54,mg
CDISCPILOT01,01-701-1211,1211,701,USA,AE,2012-11-15,2013-01-14,2012-11-15,2013-01-12,2013-01-14,,,2013-01-14,61,Y,2,<= 30,Y,,AE,,NA,2012-10-30,-16,76,YEARS,>64,F,WHITE,White,NOT HISPANIC OR LATINO,Y,Xanomeline Low Dose,Xan_Lo,Xanomeline Low Dose,Xan_Lo,Xanomeline Low Dose,Xanomeline Low Dose,2012-11-15,2012-11-15T00:00:00Z,H,2013-01-12,2013-01-12T23:59:59Z,H,DISCONTINUED,2013-01-14,,2012-11-15,2013-01-14,59,2013-01-14,,SUDDEN DEATH,ADVERSE EVENT,8,DYSPNOEA,DYSPNOEA,"RESPIRATORY, THORACIC AND MEDIASTINAL DISORDERS",,SHORTNESS OF BREATH,,,HLT_0296,,HLGT_0255,,"RESPIRATORY, THORACIC AND MEDIASTINAL DISORDERS",,2013-01-11,2013-01-11,2013-01-11T00:00:00Z,,H,,,,,,58,58,,,,,Y,,N,N,N,N,N,N,MODERATE,MODERATE,2,NONE,NONE,,E13,NOT RECOVERED/NOT RESOLVED,N,N,2013-01-14,2013-01-11T00:00:00Z,54,mg
CDISCPILOT01,01-701-1211,1211,701,USA,AE,2012-11-15,2013-01-14,2012-11-15,2013-01-12,2013-01-14,,,2013-01-14,61,Y,2,<= 30,Y,,AE,,NA,2012-10-30,-16,76,YEARS,>64,F,WHITE,White,NOT HISPANIC OR LATINO,Y,Xanomeline Low Dose,Xan_Lo,Xanomeline Low Dose,Xan_Lo,Xanomeline Low Dose,Xanomeline Low Dose,2012-11-15,2012-11-15T00:00:00Z,H,2013-01-12,2013-01-12T23:59:59Z,H,DISCONTINUED,2013-01-14,,2012-11-15,2013-01-14,59,2013-01-14,,SUDDEN DEATH,ADVERSE EVENT,1,APPLICATION SITE PRURITUS,APPLICATION SITE PRURITUS,GENERAL DISORDERS AND ADMINISTRATION SITE CONDITIONS,,APPLICATION SITE ITCHING,,,HLT_0317,,HLGT_0338,,GENERAL DISORDERS AND ADMINISTRATION SITE CONDITIONS,,2012-11-16,2012-11-16,2012-11-16T00:00:00Z,,H,,,,,,2,2,,,,,Y,,N,N,N,N,N,N,MILD,MILD,1,POSSIBLE,POSSIBLE,,E08,NOT RECOVERED/NOT RESOLVED,N,N,2012-11-28,2012-11-16T00:00:00Z,54,mg
CDISCPILOT01,01-701-1211,1211,701,USA,AE,2012-11-15,2013-01-14,2012-11-15,2013-01-12,2013-01-14,,,2013-01-14,61,Y,2,<= 30,Y,,AE,,NA,2012-10-30,-16,76,YEARS,>64,F,WHITE,White,NOT HISPANIC OR LATINO,Y,Xanomeline Low Dose,Xan_Lo,Xanomeline Low Dose,Xan_Lo,Xanomeline Low Dose,Xanomeline Low Dose,2012-11-15,2012-11-15T00:00:00Z,H,2013-01-12,2013-01-12T23:59:59Z,H,DISCONTINUED,2013-01-14,,2012-11-15,2013-01-14,59,2013-01-14,,SUDDEN DEATH,ADVERSE EVENT,3,SHOULDER PAIN,SHOULDER PAIN,MUSCULOSKELETAL AND CONNECTIVE TISSUE DISORDERS,,SHOULDER PAIN,,,HLT_0527,,HLGT_0288,,MUSCULOSKELETAL AND CONNECTIVE TISSUE DISORDERS,,2012-11-21,2012-11-21,2012-11-21T00:00:00Z,,H,,,,,,7,7,,,,,Y,,N,N,N,N,N,N,MILD,MILD,1,NONE,NONE,,E04,NOT RECOVERED/NOT RESOLVED,N,N,2012-11-28,2012-11-21T00:00:00Z,54,mg
CDISCPILOT01,01-701-1211,1211,701,USA,AE,2012-11-15,2013-01-14,2012-11-15,2013-01-12,2013-01-14,,,2013-01-14,61,Y,2,<= 30,Y,,AE,,NA,2012-10-30,-16,76,YEARS,>64,F,WHITE,White,NOT HISPANIC OR LATINO,Y,Xanomeline Low Dose,Xan_Lo,Xanomeline Low Dose,Xan_Lo,Xanomeline Low Dose,Xanomeline Low Dose,2012-11-15,2012-11-15T00:00:00Z,H,2013-01-12,2013-01-12T23:59:59Z,H,DISCONTINUED,2013-01-14,,2012-11-15,2013-01-14,59,2013-01-14,,SUDDEN DEATH,ADVERSE EVENT,4,INCONTINENCE,INCONTINENCE,RENAL AND URINARY DISORDERS,,INCONTINENCE,,,HLT_0560,,HLGT_0503,,RENAL AND URINARY DISORDERS,,2012-11-22,2012-11-22,2012-11-22T00:00:00Z,,H,,,,,,8,8,,,,,Y,,N,N,N,N,N,N,MILD,MILD,1,NONE,NONE,,E09,NOT RECOVERED/NOT RESOLVED,N,N,2012-11-28,2012-11-22T00:00:00Z,54,mg
CDISCPILOT01,01-701-1211,1211,701,USA,AE,2012-11-15,2013-01-14,2012-11-15,2013-01-12,2013-01-14,,,2013-01-14,61,Y,2,<= 30,Y,,AE,,NA,2012-10-30,-16,76,YEARS,>64,F,WHITE,White,NOT HISPANIC OR LATINO,Y,Xanomeline Low Dose,Xan_Lo,Xanomeline Low Dose,Xan_Lo,Xanomeline Low Dose,Xanomeline Low Dose,2012-11-15,2012-11-15T00:00:00Z,H,2013-01-12,2013-01-12T23:59:59Z,H,DISCONTINUED,2013-01-14,,2012-11-15,2013-01-14,59,2013-01-14,,SUDDEN DEATH,ADVERSE EVENT,5,APPLICATION SITE ERYTHEMA,APPLICATION SITE ERYTHEMA,GENERAL DISORDERS AND ADMINISTRATION SITE CONDITIONS,,APPLICATION SITE REDNESS,,,HLT_0617,,HLGT_0152,,GENERAL DISORDERS AND ADMINISTRATION SITE CONDITIONS,,2012-11-29,2012-11-29,2012-11-29T00:00:00Z,,H,,,,,,15,15,,,,,Y,,N,N,N,N,N,N,MILD,MILD,1,POSSIBLE,POSSIBLE,,E05,NOT RECOVERED/NOT RESOLVED,N,N,2012-12-11,2012-11-29T00:00:00Z,54,mg
CDISCPILOT01,01-701-1211,1211,701,USA,AE,2012-11-15,2013-01-14,2012-11-15,2013-01-12,2013-01-14,,,2013-01-14,61,Y,2,<= 30,Y,,AE,,NA,2012-10-30,-16,76,YEARS,>64,F,WHITE,White,NOT HISPANIC OR LATINO,Y,Xanomeline Low Dose,Xan_Lo,Xanomeline Low Dose,Xan_Lo,Xanomeline Low Dose,Xanomeline Low Dose,2012-11-15,2012-11-15T00:00:00Z,H,2013-01-12,2013-01-12T23:59:59Z,H,DISCONTINUED,2013-01-14,,2012-11-15,2013-01-14,59,2013-01-14,,SUDDEN DEATH,ADVERSE EVENT,6,SKIN LACERATION,SKIN LACERATION,"INJURY, POISONING AND PROCEDURAL COMPLICATIONS",,LACERATION OF FACE,,,HLT_0075,,HLGT_0118,,"INJURY, POISONING AND PROCEDURAL COMPLICATIONS",,2012-12-09,2012-12-09,2012-12-09T00:00:00Z,,H,,,,,,25,25,,,,,Y,,N,N,N,N,N,N,MILD,MILD,1,NONE,NONE,,E06,NOT RECOVERED/NOT RESOLVED,N,N,2012-12-11,2012-12-09T00:00:00Z,54,mg
CDISCPILOT01,01-701-1239,1239,701,USA,AE,2014-01-11,2014-07-11,2014-01-11,2014-07-10,2014-07-11T15:40,,,,,,,,,,,,NA,2013-12-28,-14,56,YEARS,18-64,M,WHITE,White,HISPANIC OR LATINO,Y,Xanomeline High Dose,Xan_Hi,Xanomeline High Dose,Xan_Hi,Xanomeline High Dose,Xanomeline High Dose,2014-01-11,2014-01-11T00:00:00Z,H,2014-07-10,2014-07-10T23:59:59Z,H,COMPLETED,2014-07-11,,2014-01-11,2014-07-11,181,,,,,6,ERYTHEMA,ERYTHEMA,SKIN AND SUBCUTANEOUS TISSUE DISORDERS,,ERYTHEMA,,,HLT_0284,,HLGT_0192,,SKIN AND SUBCUTANEOUS TISSUE DISORDERS,,2014-01-12,2014-01-12,2014-01-12T00:00:00Z,,H,,,,,,2,2,,,,,Y,Y,N,N,N,N,N,N,MODERATE,MODERATE,2,POSSIBLE,POSSIBLE,,E11,NOT RECOVERED/NOT RESOLVED,N,N,2014-02-19,2014-01-12T00:00:00Z,54,mg
CDISCPILOT01,01-701-1239,1239,701,USA,AE,2014-01-11,2014-07-11,2014-01-11,2014-07-10,2014-07-11T15:40,,,,,,,,,,,,NA,2013-12-28,-14,56,YEARS,18-64,M,WHITE,White,HISPANIC OR LATINO,Y,Xanomeline High Dose,Xan_Hi,Xanomeline High Dose,Xan_Hi,Xanomeline High Dose,Xanomeline High Dose,2014-01-11,2014-01-11T00:00:00Z,H,2014-07-10,2014-07-10T23:59:59Z,H,COMPLETED,2014-07-11,,2014-01-11,2014-07-11,181,,,,,1,ERYTHEMA,ERYTHEMA,SKIN AND SUBCUTANEOUS TISSUE DISORDERS,,ERYTHEMA,,,HLT_0284,,HLGT_0192,,SKIN AND SUBCUTANEOUS TISSUE DISORDERS,,2014-01-12,2014-01-12,2014-01-12T00:00:00Z,,H,,,,,,2,2,,,,,Y,,N,N,N,N,N,N,MILD,MILD,1,POSSIBLE,POSSIBLE,,E11,NOT RECOVERED/NOT RESOLVED,N,N,2014-01-25,2014-01-12T00:00:00Z,54,mg
CDISCPILOT01,01-701-1239,1239,701,USA,AE,2014-01-11,2014-07-11,2014-01-11,2014-07-10,2014-07-11T15:40,,,,,,,,,,,,NA,2013-12-28,-14,56,YEARS,18-64,M,WHITE,White,HISPANIC OR LATINO,Y,Xanomeline High Dose,Xan_Hi,Xanomeline High Dose,Xan_Hi,Xanomeline High Dose,Xanomeline High Dose,2014-01-11,2014-01-11T00:00:00Z,H,2014-07-10,2014-07-10T23:59:59Z,H,COMPLETED,2014-07-11,,2014-01-11,2014-07-11,181,,,,,2,SKIN ODOUR ABNORMAL,SKIN ODOUR ABNORMAL,SKIN AND SUBCUTANEOUS TISSUE DISORDERS,,SKIN ODOR ABNORMAL,,,HLT_0510,,HLGT_0184,,SKIN AND SUBCUTANEOUS TISSUE DISORDERS,,2014-01-12,2014-01-12,2014-01-12T00:00:00Z,,H,,,,,,2,2,,,,,Y,,N,N,N,N,N,N,MILD,MILD,1,REMOTE,REMOTE,,E15,NOT RECOVERED/NOT RESOLVED,N,N,2014-01-25,2014-01-12T00:00:00Z,54,mg
CDISCPILOT01,01-701-1239,1239,701,USA,AE,2014-01-11,2014-07-11,2014-01-11,2014-07-10,2014-07-11T15:40,,,,,,,,,,,,NA,2013-12-28,-14,56,YEARS,18-64,M,WHITE,White,HISPANIC OR LATINO,Y,Xanomeline High Dose,Xan_Hi,Xanomeline High Dose,Xan_Hi,Xanomeline High Dose,Xanomeline High Dose,2014-01-11,2014-01-11T00:00:00Z,H,2014-07-10,2014-07-10T23:59:59Z,H,COMPLETED,2014-07-11,,2014-01-11,2014-07-11,181,,,,,3,PRURITUS,PRURITUS,SKIN AND SUBCUTANEOUS TISSUE DISORDERS,,ITCHING,,,HLT_0778,,HLGT_0695,,SKIN AND SUBCUTANEOUS TISSUE DISORDERS,,2014-01-13,2014-01-13,2014-01-13T00:00:00Z,,H,,,,,,3,3,,,,,Y,,N,N,N,N,N,N,MILD,MILD,1,POSSIBLE,POSSIBLE,,E12,NOT RECOVERED/NOT RESOLVED,N,N,2014-01-25,2014-01-13T00:00:00Z,54,mg
CDISCPILOT01,01-701-1239,1239,701,USA,AE,2014-01-11,2014-07-11,2014-01-11,2014-07-10,2014-07-11T15:40,,,,,,,,,,,,NA,2013-12-28,-14,56,YEARS,18-64,M,WHITE,White,HISPANIC OR LATINO,Y,Xanomeline High Dose,Xan_Hi,Xanomeline High Dose,Xan_Hi,Xanomeline High Dose,Xanomeline High Dose,2014-01-11,2014-01-11T00:00:00Z,H,2014-07-10,2014-07-10T23:59:59Z,H,COMPLETED,2014-07-11,,2014-01-11,2014-07-11,181,,,,,4,APPLICATION SITE IRRITATION,APPLICATION SITE IRRITATION,GENERAL DISORDERS AND ADMINISTRATION SITE CONDITIONS,,APPLICATION SITE IRRITATION,,,HLT_0061,,HLGT_0346,,GENERAL DISORDERS AND ADMINISTRATION SITE CONDITIONS,,2014-01-20,2014-01-20,2014-01-20T00:00:00Z,,H,2014-02-08,2014-02-08,2014-02-08T23:59:59Z,,H,10,10,29,29,20,days,Y,,N,N,N,N,N,N,MILD,MILD,1,PROBABLE,PROBABLE,,E13,NOT RECOVERED/NOT RESOLVED,N,N,2014-01-25,2014-01-20T00:00:00Z,54,mg
CDISCPILOT01,01-701-1239,1239,701,USA,AE,2014-01-11,2014-07-11,2014-01-11,2014-07-10,2014-07-11T15:40,,,,,,,,,,,,NA,2013-12-28,-14,56,YEARS,18-64,M,WHITE,White,HISPANIC OR LATINO,Y,Xanomeline High Dose,Xan_Hi,Xanomeline High Dose,Xan_Hi,Xanomeline High Dose,Xanomeline High Dose,2014-01-11,2014-01-11T00:00:00Z,H,2014-07-10,2014-07-10T23:59:59Z,H,COMPLETED,2014-07-11,,2014-01-11,2014-07-11,181,,,,,5,APPLICATION SITE IRRITATION,APPLICATION SITE IRRITATION,GENERAL DISORDERS AND ADMINISTRATION SITE CONDITIONS,,APPLICATION SITE IRRITATION,,,HLT_0061,,HLGT_0346,,GENERAL DISORDERS AND ADMINISTRATION SITE CONDITIONS,,2014-01-20,2014-01-20,2014-01-20T00:00:00Z,,H,2014-02-08,2014-02-08,2014-02-08T23:59:59Z,,H,10,10,29,29,20,days,Y,,N,N,N,N,N,N,MILD,MILD,1,PROBABLE,PROBABLE,,E13,RECOVERED/RESOLVED,N,N,2014-02-10,2014-01-20T00:00:00Z,54,mg
CDISCPILOT01,01-701-1239,1239,701,USA,AE,2014-01-11,2014-07-11,2014-01-11,2014-07-10,2014-07-11T15:40,,,,,,,,,,,,NA,2013-12-28,-14,56,YEARS,18-64,M,WHITE,White,HISPANIC OR LATINO,Y,Xanomeline High Dose,Xan_Hi,Xanomeline High Dose,Xan_Hi,Xanomeline High Dose,Xanomeline High Dose,2014-01-11,2014-01-11T00:00:00Z,H,2014-07-10,2014-07-10T23:59:59Z,H,COMPLETED,2014-07-11,,2014-01-11,2014-07-11,181,,,,,7,UPPER RESPIRATORY TRACT INFECTION,UPPER RESPIRATORY TRACT INFECTION,INFECTIONS AND INFESTATIONS,,UPPER RESPIRATORY INFECTION,,,HLT_0520,,HLGT_0489,,INFECTIONS AND INFESTATIONS,,2014-02-20,2014-02-20,2014-02-20T00:00:00Z,,H,2014-03-12,2014-03-12,2014-03-12T23:59:59Z,,H,41,41,61,61,21,days,Y,,N,N,N,N,N,N,MILD,MILD,1,NONE,NONE,,E14,NOT RECOVERED/NOT RESOLVED,N,N,2014-03-06,2014-01-25T00:00:00Z,,
CDISCPILOT01,01-701-1239,1239,701,USA,AE,2014-01-11,2014-07-11,2014-01-11,2014-07-10,2014-07-11T15:40,,,,,,,,,,,,NA,2013-12-28,-14,56,YEARS,18-64,M,WHITE,White,HISPANIC OR LATINO,Y,Xanomeline High Dose,Xan_Hi,Xanomeline High Dose,Xan_Hi,Xanomeline High Dose,Xanomeline High Dose,2014-01-11,2014-01-11T00:00:00Z,H,2014-07-10,2014-07-10T23:59:59Z,H,COMPLETED,2014-07-11,,2014-01-11,2014-07-11,181,,,,,8,UPPER RESPIRATORY TRACT INFECTION,UPPER RESPIRATORY TRACT INFECTION,INFECTIONS AND INFESTATIONS,,UPPER RESPIRATORY INFECTION,,,HLT_0520,,HLGT_0489,,INFECTIONS AND INFESTATIONS,,2014-02-20,2014-02-20,2014-02-20T00:00:00Z,,H,2014-03-12,2014-03-12,2014-03-12T23:59:59Z,,H,41,41,61,61,21,days,Y,,N,N,N,N,N,N,MILD,MILD,1,NONE,NONE,,E14,RECOVERED/RESOLVED,N,N,2014-04-02,2014-01-25T00:00:00Z,,
CDISCPILOT01,01-701-1239,1239,701,USA,AE,2014-01-11,2014-07-11,2014-01-11,2014-07-10,2014-07-11T15:40,,,,,,,,,,,,NA,2013-12-28,-14,56,YEARS,18-64,M,WHITE,White,HISPANIC OR LATINO,Y,Xanomeline High Dose,Xan_Hi,Xanomeline High Dose,Xan_Hi,Xanomeline High Dose,Xanomeline High Dose,2014-01-11,2014-01-11T00:00:00Z,H,2014-07-10,2014-07-10T23:59:59Z,H,COMPLETED,2014-07-11,,2014-01-11,2014-07-11,181,,,,,9,FATIGUE,FATIGUE,GENERAL DISORDERS AND ADMINISTRATION SITE CONDITIONS,,FATIGUE,,,HLT_0043,,HLGT_0181,,GENERAL DISORDERS AND ADMINISTRATION SITE CONDITIONS,,2014-03,2014-03-01,2014-03-01T00:00:00Z,D,H,,,,,,50,,,,,,Y,,N,N,N,N,N,N,MILD,MILD,1,REMOTE,REMOTE,,E16,NOT RECOVERED/NOT RESOLVED,N,N,2014-04-02,2014-01-25T00:00:00Z,,
CDISCPILOT01,01-701-1239,1239,701,USA,AE,2014-01-11,2014-07-11,2014-01-11,2014-07-10,2014-07-11T15:40,,,,,,,,,,,,NA,2013-12-28,-14,56,YEARS,18-64,M,WHITE,White,HISPANIC OR LATINO,Y,Xanomeline High Dose,Xan_Hi,Xanomeline High Dose,Xan_Hi,Xanomeline High Dose,Xanomeline High Dose,2014-01-11,2014-01-11T00:00:00Z,H,2014-07-10,2014-07-10T23:59:59Z,H,COMPLETED,2014-07-11,,2014-01-11,2014-07-11,181,,,,,10,HORDEOLUM,HORDEOLUM,INFECTIONS AND INFESTATIONS,,STYE,,,HLT_0604,,HLGT_0290,,INFECTIONS AND INFESTATIONS,,2014-04,2014-04-01,2014-04-01T00:00:00Z,D,H,,,,,,81,,,,,,Y,,N,N,N,N,N,N,MILD,MILD,1,NONE,NONE,,E17,NOT RECOVERED/NOT RESOLVED,N,N,2014-05-02,2014-01-25T00:00:00Z,,
CDISCPILOT01,01-701-1275,1275,701,USA,AE,2014-02-07,2014-06-14,2014-02-07,2014-05-31,2014-06-14T12:35,,,,,,,,,,,,NA,2014-01-25,-13,61,YEARS,18-64,M,AMERICAN INDIAN OR ALASKA NATIVE,Non-white,NOT HISPANIC OR LATINO,Y,Xanomeline High Dose,Xan_Hi,Xanomeline High Dose,Xan_Hi,Xanomeline High Dose,Xanomeline High Dose,2014-02-07,2014-02-07T00:00:00Z,H,2014-05-31,2014-05-31T23:59:59Z,H,DISCONTINUED,2014-06-14,,2014-02-07,2014-06-14,114,,,,,1,NAUSEA,NAUSEA,GASTROINTESTINAL DISORDERS,,NAUSEA,,,HLT_0742,,HLGT_0326,,GASTROINTESTINAL DISORDERS,,2014-02-13,2014-02-13,2014-02-13T00:00:00Z,,H,2014-06-03,2014-06-03,2014-06-03T23:59:59Z,,H,7,7,117,117,111,days,Y,Y,N,N,N,N,N,N,MILD,MILD,1,POSSIBLE,POSSIBLE,,E04,NOT RECOVERED/NOT RESOLVED,N,N,2014-02-22,2014-02-13T00:00:00Z,54,mg
CDISCPILOT01,01-701-1275,1275,701,USA,AE,2014-02-07,2014-06-14,2014-02-07,2014-05-31,2014-06-14T12:35,,,,,,,,,,,,NA,2014-01-25,-13,61,YEARS,18-64,M,AMERICAN INDIAN OR ALASKA NATIVE,Non-white,NOT HISPANIC OR LATINO,Y,Xanomeline High Dose,Xan_Hi,Xanomeline High Dose,Xan_Hi,Xanomeline High Dose,Xanomeline High Dose,2014-02-07,2014-02-07T00:00:00Z,H,2014-05-31,2014-05-31T23:59:59Z,H,DISCONTINUED,2014-06-14,,2014-02-07,2014-06-14,114,,,,,11,NAUSEA,NAUSEA,GASTROINTESTINAL DISORDERS,,NAUSEA,,,HLT_0742,,HLGT_0326,,GASTROINTESTINAL DISORDERS,,2014-02-13,2014-02-13,2014-02-13T00:00:00Z,,H,2014-06-03,2014-06-03,2014-06-03T23:59:59Z,,H,7,7,117,117,111,days,Y,,N,N,N,N,N,N,MILD,MILD,1,POSSIBLE,POSSIBLE,,E04,RECOVERED/RESOLVED,N,N,2014-06-14,2014-02-13T00:00:00Z,54,mg
CDISCPILOT01,01-701-1275,1275,701,USA,AE,2014-02-07,2014-06-14,2014-02-07,2014-05-31,2014-06-14T12:35,,,,,,,,,,,,NA,2014-01-25,-13,61,YEARS,18-64,M,AMERICAN INDIAN OR ALASKA NATIVE,Non-white,NOT HISPANIC OR LATINO,Y,Xanomeline High Dose,Xan_Hi,Xanomeline High Dose,Xan_Hi,Xanomeline High Dose,Xanomeline High Dose,2014-02-07,2014-02-07T00:00:00Z,H,2014-05-31,2014-05-31T23:59:59Z,H,DISCONTINUED,2014-06-14,,2014-02-07,2014-06-14,114,,,,,2,VOMITING,VOMITING,GASTROINTESTINAL DISORDERS,,VOMITING,,,HLT_0016,,HLGT_0350,,GASTROINTESTINAL DISORDERS,,2014-02-23,2014-02-23,2014-02-23T00:00:00Z,,H,2014-02-23,2014-02-23,2014-02-23T23:59:59Z,,H,17,17,17,17,1,days,Y,,N,N,N,N,N,N,MILD,MILD,1,POSSIBLE,POSSIBLE,,E05,RECOVERED/RESOLVED,N,N,2014-03-07,2014-02-22T00:00:00Z,,
CDISCPILOT01,01-701-1275,1275,701,USA,AE,2014-02-07,2014-06-14,2014-02-07,2014-05-31,2014-06-14T12:35,,,,,,,,,,,,NA,2014-01-25,-13,61,YEARS,18-64,M,AMERICAN INDIAN OR ALASKA NATIVE,Non-white,NOT HISPANIC OR LATINO,Y,Xanomeline High Dose,Xan_Hi,Xanomeline High Dose,Xan_Hi,Xanomeline High Dose,Xanomeline High Dose,2014-02-07,2014-02-07T00:00:00Z,H,2014-05-31,2014-05-31T23:59:59Z,H,DISCONTINUED,2014-06-14,,2014-02-07,2014-06-14,114,,,,,3,ERYTHEMA,ERYTHEMA,SKIN AND SUBCUTANEOUS TISSUE DISORDERS,,ERYTHEMA,,,HLT_0284,,HLGT_0192,,SKIN AND SUBCUTANEOUS TISSUE DISORDERS,,2014-02-24,2014-02-24,2014-02-24T00:00:00Z,,H,2014-06-12,2014-06-12,2014-06-12T23:59:59Z,,H,18,18,126,126,109,days,Y,,N,N,N,N,N,N,MILD,MILD,1,POSSIBLE,POSSIBLE,,E06,NOT RECOVERED/NOT RESOLVED,N,N,2014-03-07,2014-02-22T00:00:00Z,,
CDISCPILOT01,01-701-1275,1275,701,USA,AE,2014-02-07,2014-06-14,2014-02-07,2014-05-31,2014-06-14T12:35,,,,,,,,,,,,NA,2014-01-25,-13,61,YEARS,18-64,M,AMERICAN INDIAN OR ALASKA NATIVE,Non-white,NOT HISPANIC OR LATINO,Y,Xanomeline High Dose,Xan_Hi,Xanomeline High Dose,Xan_Hi,Xanomeline High Dose,Xanomeline High Dose,2014-02-07,2014-02-07T00:00:00Z,H,2014-05-31,2014-05-31T23:59:59Z,H,DISCONTINUED,2014-06-14,,2014-02-07,2014-06-14,114,,,,,4,SALIVARY HYPERSECRETION,SALIVARY HYPERSECRETION,GASTROINTESTINAL DISORDERS,,HYPERSALIVATION,,,HLT_0374,,HLGT_0488,,GASTROINTESTINAL DISORDERS,,2014-02-24,2014-02-24,2014-02-24T00:00:00Z,,H,2014-06-03,2014-06-03,2014-06-03T23:59:59Z,,H,18,18,117,117,100,days,Y,,N,N,N,N,N,N,MILD,MILD,1,POSSIBLE,POSSIBLE,,E07,NOT RECOVERED/NOT RESOLVED,N,N,2014-03-07,2014-02-22T00:00:00Z,,
CDISCPILOT01,01-701-1275,1275,701,USA,AE,2014-02-07,2014-06-14,2014-02-07,2014-05-31,2014-06-14T12:35,,,,,,,,,,,,NA,2014-01-25,-13,61,YEARS,18-64,M,AMERICAN INDIAN OR ALASKA NATIVE,Non-white,NOT HISPANIC OR LATINO,Y,Xanomeline High Dose,Xan_Hi,Xanomeline High Dose,Xan_Hi,Xanomeline High Dose,Xanomeline High Dose,2014-02-07,2014-02-07T00:00:00Z,H,2014-05-31,2014-05-31T23:59:59Z,H,DISCONTINUED,2014-06-14,,2014-02-07,2014-06-14,114,,,,,5,PAROSMIA,PAROSMIA,NERVOUS SYSTEM DISORDERS,,STRANGE SMELL SENSATION,,,HLT_0258,,HLGT_0471,,NERVOUS SYSTEM DISORDERS,,2014-02-24,2014-02-24,2014-02-24T00:00:00Z,,H,2014-06-03,2014-06-03,2014-06-03T23:59:59Z,,H,18,18,117,117,100,days,Y,,N,N,N,N,N,N,MILD,MILD,1,POSSIBLE,POSSIBLE,,E08,NOT RECOVERED/NOT RESOLVED,N,N,2014-03-07,2014-02-22T00:00:00Z,,
CDISCPILOT01,01-701-1275,1275,701,USA,AE,2014-02-07,2014-06-14,2014-02-07,2014-05-31,2014-06-14T12:35,,,,,,,,,,,,NA,2014-01-25,-13,61,YEARS,18-64,M,AMERICAN INDIAN OR ALASKA NATIVE,Non-white,NOT HISPANIC OR LATINO,Y,Xanomeline High Dose,Xan_Hi,Xanomeline High Dose,Xan_Hi,Xanomeline High Dose,Xanomeline High Dose,2014-02-07,2014-02-07T00:00:00Z,H,2014-05-31,2014-05-31T23:59:59Z,H,DISCONTINUED,2014-06-14,,2014-02-07,2014-06-14,114,,,,,6,PRURITUS,PRURITUS,SKIN AND SUBCUTANEOUS TISSUE DISORDERS,,ITCHING,,,HLT_0778,,HLGT_0695,,SKIN AND SUBCUTANEOUS TISSUE DISORDERS,,2014-02-24,2014-02-24,2014-02-24T00:00:00Z,,H,2014-06-12,2014-06-12,2014-06-12T23:59:59Z,,H,18,18,126,126,109,days,Y,,N,N,N,N,N,N,MILD,MILD,1,POSSIBLE,POSSIBLE,,E11,NOT RECOVERED/NOT RESOLVED,N,N,2014-03-07,2014-02-22T00:00:00Z,,
CDISCPILOT01,01-701-1275,1275,701,USA,AE,2014-02-07,2014-06-14,2014-02-07,2014-05-31,2014-06-14T12:35,,,,,,,,,,,,NA,2014-01-25,-13,61,YEARS,18-64,M,AMERICAN INDIAN OR ALASKA NATIVE,Non-white,NOT HISPANIC OR LATINO,Y,Xanomeline High Dose,Xan_Hi,Xanomeline High Dose,Xan_Hi,Xanomeline High Dose,Xanomeline High Dose,2014-02-07,2014-02-07T00:00:00Z,H,2014-05-31,2014-05-31T23:59:59Z,H,DISCONTINUED,2014-06-14,,2014-02-07,2014-06-14,114,,,,,12,ERYTHEMA,ERYTHEMA,SKIN AND SUBCUTANEOUS TISSUE DISORDERS,,ERYTHEMA,,,HLT_0284,,HLGT_0192,,SKIN AND SUBCUTANEOUS TISSUE DISORDERS,,2014-02-24,2014-02-24,2014-02-24T00:00:00Z,,H,2014-06-12,2014-06-12,2014-06-12T23:59:59Z,,H,18,18,126,126,109,days,Y,,N,N,N,N,N,N,MILD,MILD,1,POSSIBLE,POSSIBLE,,E06,RECOVERED/RESOLVED,N,N,2014-06-14,2014-02-22T00:00:00Z,,
CDISCPILOT01,01-701-1275,1275,701,USA,AE,2014-02-07,2014-06-14,2014-02-07,2014-05-31,2014-06-14T12:35,,,,,,,,,,,,NA,2014-01-25,-13,61,YEARS,18-64,M,AMERICAN INDIAN OR ALASKA NATIVE,Non-white,NOT HISPANIC OR LATINO,Y,Xanomeline High Dose,Xan_Hi,Xanomeline High Dose,Xan_Hi,Xanomeline High Dose,Xanomeline High Dose,2014-02-07,2014-02-07T00:00:00Z,H,2014-05-31,2014-05-31T23:59:59Z,H,DISCONTINUED,2014-06-14,,2014-02-07,2014-06-14,114,,,,,13,SALIVARY HYPERSECRETION,SALIVARY HYPERSECRETION,GASTROINTESTINAL DISORDERS,,HYPERSALIVATION,,,HLT_0374,,HLGT_0488,,GASTROINTESTINAL DISORDERS,,2014-02-24,2014-02-24,2014-02-24T00:00:00Z,,H,2014-06-03,2014-06-03,2014-06-03T23:59:59Z,,H,18,18,117,117,100,days,Y,,N,N,N,N,N,N,MILD,MILD,1,POSSIBLE,POSSIBLE,,E07,RECOVERED/RESOLVED,N,N,2014-06-14,2014-02-22T00:00:00Z,,
CDISCPILOT01,01-701-1275,1275,701,USA,AE,2014-02-07,2014-06-14,2014-02-07,2014-05-31,2014-06-14T12:35,,,,,,,,,,,,NA,2014-01-25,-13,61,YEARS,18-64,M,AMERICAN INDIAN OR ALASKA NATIVE,Non-white,NOT HISPANIC OR LATINO,Y,Xanomeline High Dose,Xan_Hi,Xanomeline High Dose,Xan_Hi,Xanomeline High Dose,Xanomeline High Dose,2014-02-07,2014-02-07T00:00:00Z,H,2014-05-31,2014-05-31T23:59:59Z,H,DISCONTINUED,2014-06-14,,2014-02-07,2014-06-14,114,,,,,14,PAROSMIA,PAROSMIA,NERVOUS SYSTEM DISORDERS,,STRANGE SMELL SENSATION,,,HLT_0258,,HLGT_0471,,NERVOUS SYSTEM DISORDERS,,2014-02-24,2014-02-24,2014-02-24T00:00:00Z,,H,2014-06-03,2014-06-03,2014-06-03T23:59:59Z,,H,18,18,117,117,100,days,Y,,N,N,N,N,N,N,MILD,MILD,1,POSSIBLE,POSSIBLE,,E08,RECOVERED/RESOLVED,N,N,2014-06-14,2014-02-22T00:00:00Z,,
CDISCPILOT01,01-701-1275,1275,701,USA,AE,2014-02-07,2014-06-14,2014-02-07,2014-05-31,2014-06-14T12:35,,,,,,,,,,,,NA,2014-01-25,-13,61,YEARS,18-64,M,AMERICAN INDIAN OR ALASKA NATIVE,Non-white,NOT HISPANIC OR LATINO,Y,Xanomeline High Dose,Xan_Hi,Xanomeline High Dose,Xan_Hi,Xanomeline High Dose,Xanomeline High Dose,2014-02-07,2014-02-07T00:00:00Z,H,2014-05-31,2014-05-31T23:59:59Z,H,DISCONTINUED,2014-06-14,,2014-02-07,2014-06-14,114,,,,,15,PRURITUS,PRURITUS,SKIN AND SUBCUTANEOUS TISSUE DISORDERS,,ITCHING,,,HLT_0778,,HLGT_0695,,SKIN AND SUBCUTANEOUS TISSUE DISORDERS,,2014-02-24,2014-02-24,2014-02-24T00:00:00Z,,H,2014-06-12,2014-06-12,2014-06-12T23:59:59Z,,H,18,18,126,126,109,days,Y,,N,N,N,N,N,N,MILD,MILD,1,POSSIBLE,POSSIBLE,,E11,RECOVERED/RESOLVED,N,N,2014-06-14,2014-02-22T00:00:00Z,,
CDISCPILOT01,01-701-1275,1275,701,USA,AE,2014-02-07,2014-06-14,2014-02-07,2014-05-31,2014-06-14T12:35,,,,,,,,,,,,NA,2014-01-25,-13,61,YEARS,18-64,M,AMERICAN INDIAN OR ALASKA NATIVE,Non-white,NOT HISPANIC OR LATINO,Y,Xanomeline High Dose,Xan_Hi,Xanomeline High Dose,Xan_Hi,Xanomeline High Dose,Xanomeline High Dose,2014-02-07,2014-02-07T00:00:00Z,H,2014-05-31,2014-05-31T23:59:59Z,H,DISCONTINUED,2014-06-14,,2014-02-07,2014-06-14,114,,,,,7,COUGH,COUGH,"RESPIRATORY, THORACIC AND MEDIASTINAL DISORDERS",,COUGH,,,HLT_0701,,HLGT_0280,,"RESPIRATORY, THORACIC AND MEDIASTINAL DISORDERS",,2014-03-12,2014-03-12,2014-03-12T00:00:00Z,,H,2014-03-27,2014-03-27,2014-03-27T23:59:59Z,,H,34,34,49,49,16,days,Y,,N,N,N,N,N,N,MILD,MILD,1,NONE,NONE,,E09,NOT RECOVERED/NOT RESOLVED,N,N,2014-03-22,2014-02-22T00:00:00Z,,
CDISCPILOT01,01-701-1275,1275,701,USA,AE,2014-02-07,2014-06-14,2014-02-07,2014-05-31,2014-06-14T12:35,,,,,,,,,,,,NA,2014-01-25,-13,61,YEARS,18-64,M,AMERICAN INDIAN OR ALASKA NATIVE,Non-white,NOT HISPANIC OR LATINO,Y,Xanomeline High Dose,Xan_Hi,Xanomeline High Dose,Xan_Hi,Xanomeline High Dose,Xanomeline High Dose,2014-02-07,2014-02-07T00:00:00Z,H,2014-05-31,2014-05-31T23:59:59Z,H,DISCONTINUED,2014-06-14,,2014-02-07,2014-06-14,114,,,,,8,NASAL CONGESTION,NASAL CONGESTION,"RESPIRATORY, THORACIC AND MEDIASTINAL DISORDERS",,NASAL CONGESTION,,,HLT_0118,,HLGT_0549,,"RESPIRATORY, THORACIC AND MEDIASTINAL DISORDERS",,2014-03-12,2014-03-12,2014-03-12T00:00:00Z,,H,2014-03-27,2014-03-27,2014-03-27T23:59:59Z,,H,34,34,49,49,16,days,Y,,N,N,N,N,N,N,MILD,MILD,1,NONE,NONE,,E10,NOT RECOVERED/NOT RESOLVED,N,N,2014-03-22,2014-02-22T00:00:00Z,,
CDISCPILOT01,01-701-1275,1275,701,USA,AE,2014-02-07,2014-06-14,2014-02-07,2014-05-31,2014-06-14T12:35,,,,,,,,,,,,NA,2014-01-25,-13,61,YEARS,18-64,M,AMERICAN INDIAN OR ALASKA NATIVE,Non-white,NOT HISPANIC OR LATINO,Y,Xanomeline High Dose,Xan_Hi,Xanomeline High Dose,Xan_Hi,Xanomeline High Dose,Xanomeline High Dose,2014-02-07,2014-02-07T00:00:00Z,H,2014-05-31,2014-05-31T23:59:59Z,H,DISCONTINUED,2014-06-14,,2014-02-07,2014-06-14,114,,,,,9,COUGH,COUGH,"RESPIRATORY, THORACIC AND MEDIASTINAL DISORDERS",,COUGH,,,HLT_0701,,HLGT_0280,,"RESPIRATORY, THORACIC AND MEDIASTINAL DISORDERS",,2014-03-12,2014-03-12,2014-03-12T00:00:00Z,,H,2014-03-27,2014-03-27,2014-03-27T23:59:59Z,,H,34,34,49,49,16,days,Y,,N,N,N,N,N,N,MILD,MILD,1,NONE,NONE,,E09,RECOVERED/RESOLVED,N,N,2014-04-05,2014-02-22T00:00:00Z,,
CDISCPILOT01,01-701-1275,1275,701,USA,AE,2014-02-07,2014-06-14,2014-02-07,2014-05-31,2014-06-14T12:35,,,,,,,,,,,,NA,2014-01-25,-13,61,YEARS,18-64,M,AMERICAN INDIAN OR ALASKA NATIVE,Non-white,NOT HISPANIC OR LATINO,Y,Xanomeline High Dose,Xan_Hi,Xanomeline High Dose,Xan_Hi,Xanomeline High Dose,Xanomeline High Dose,2014-02-07,2014-02-07T00:00:00Z,H,2014-05-31,2014-05-31T23:59:59Z,H,DISCONTINUED,2014-06-14,,2014-02-07,2014-06-14,114,,,,,10,NASAL CONGESTION,NASAL CONGESTION,"RESPIRATORY, THORACIC AND MEDIASTINAL DISORDERS",,NASAL CONGESTION,,,HLT_0118,,HLGT_0549,,"RESPIRATORY, THORACIC AND MEDIASTINAL DISORDERS",,2014-03-12,2014-03-12,2014-03-12T00:00:00Z,,H,2014-03-27,2014-03-27,2014-03-27T23:59:59Z,,H,34,34,49,49,16,days,Y,,N,N,N,N,N,N,MILD,MILD,1,NONE,NONE,,E10,RECOVERED/RESOLVED,N,N,2014-04-05,2014-02-22T00:00:00Z,,
CDISCPILOT01,01-701-1287,1287,701,USA,AE,2014-01-25,2014-07-26,2014-01-25,2014-07-26,2014-07-26T13:15,,,,,,,,,,,,NA,2014-01-17,-8,56,YEARS,18-64,F,WHITE,White,HISPANIC OR LATINO,Y,Xanomeline High Dose,Xan_Hi,Xanomeline High Dose,Xan_Hi,Xanomeline High Dose,Xanomeline High Dose,2014-01-25,2014-01-25T00:00:00Z,H,2014-07-26,2014-07-26T23:59:59Z,H,COMPLETED,2014-07-26,,2014-01-25,2014-07-26,183,,,,,1,SALIVARY HYPERSECRETION,SALIVARY HYPERSECRETION,GASTROINTESTINAL DISORDERS,,INCREASED SALIVATION,,,HLT_0374,,HLGT_0488,,GASTROINTESTINAL DISORDERS,,2014-01-26,2014-01-26,2014-01-26T00:00:00Z,,H,,,,,,2,2,,,,,Y,Y,N,N,N,N,N,N,MILD,MILD,1,NONE,NONE,,E02,NOT RECOVERED/NOT RESOLVED,N,N,2014-02-11,2014-01-26T00:00:00Z,54,mg
CDISCPILOT01,01-701-1287,1287,701,USA,AE,2014-01-25,2014-07-26,2014-01-25,2014-07-26,2014-07-26T13:15,,,,,,,,,,,,NA,2014-01-17,-8,56,YEARS,18-64,F,WHITE,White,HISPANIC OR LATINO,Y,Xanomeline High Dose,Xan_Hi,Xanomeline High Dose,Xan_Hi,Xanomeline High Dose,Xanomeline High Dose,2014-01-25,2014-01-25T00:00:00Z,H,2014-07-26,2014-07-26T23:59:59Z,H,COMPLETED,2014-07-26,,2014-01-25,2014-07-26,183,,,,,2,APPLICATION SITE PRURITUS,APPLICATION SITE PRURITUS,GENERAL DISORDERS AND ADMINISTRATION SITE CONDITIONS,,APPLICATION SITE ITCHING,,,HLT_0317,,HLGT_0338,,GENERAL DISORDERS AND ADMINISTRATION SITE CONDITIONS,,2014-02-22,2014-02-22,2014-02-22T00:00:00Z,,H,,,,,,29,29,,,,,Y,,N,N,N,N,N,N,MILD,MILD,1,POSSIBLE,POSSIBLE,,E03,NOT RECOVERED/NOT RESOLVED,N,N,2014-03-06,2014-02-11T00:00:00Z,,
CDISCPILOT01,01-701-1287,1287,701,USA,AE,2014-01-25,2014-07-26,2014-01-25,2014-07-26,2014-07-26T13:15,,,,,,,,,,,,NA,2014-01-17,-8,56,YEARS,18-64,F,WHITE,White,HISPANIC OR LATINO,Y,Xanomeline High Dose,Xan_Hi,Xanomeline High Dose,Xan_Hi,Xanomeline High Dose,Xanomeline High Dose,2014-01-25,2014-01-25T00:00:00Z,H,2014-07-26,2014-07-26T23:59:59Z,H,COMPLETED,2014-07-26,,2014-01-25,2014-07-26,183,,,,,3,APPLICATION SITE ERYTHEMA,APPLICATION SITE ERYTHEMA,GENERAL DISORDERS AND ADMINISTRATION SITE CONDITIONS,,APPLICATION SITE REDNESS,,,HLT_0617,,HLGT_0152,,GENERAL DISORDERS AND ADMINISTRATION SITE CONDITIONS,,2014-03-09,2014-03-09,2014-03-09T00:00:00Z,,H,,,,,,44,44,,,,,Y,,N,N,N,N,N,N,MILD,MILD,1,PROBABLE,PROBABLE,,E04,NOT RECOVERED/NOT RESOLVED,N,N,2014-03-21,2014-02-11T00:00:00Z,,
CDISCPILOT01,01-701-1287,1287,701,USA,AE,2014-01-25,2014-07-26,2014-01-25,2014-07-26,2014-07-26T13:15,,,,,,,,,,,,NA,2014-01-17,-8,56,YEARS,18-64,F,WHITE,White,HISPANIC OR LATINO,Y,Xanomeline High Dose,Xan_Hi,Xanomeline High Dose,Xan_Hi,Xanomeline High Dose,Xanomeline High Dose,2014-01-25,2014-01-25T00:00:00Z,H,2014-07-26,2014-07-26T23:59:59Z,H,COMPLETED,2014-07-26,,2014-01-25,2014-07-26,183,,,,,4,RHINORRHOEA,RHINORRHOEA,"RESPIRATORY, THORACIC AND MEDIASTINAL DISORDERS",,RUNNY NOSE,,,HLT_0635,,HLGT_0460,,"RESPIRATORY, THORACIC AND MEDIASTINAL DISORDERS",,2014-07-09,2014-07-09,2014-07-09T00:00:00Z,,H,2014-07-12,2014-07-12,2014-07-12T23:59:59Z,,H,166,166,169,169,4,days,Y,,N,N,N,N,N,N,MILD,MILD,1,NONE,NONE,,E05,NOT RECOVERED/NOT RESOLVED,N,N,2014-07-12,2014-02-11T00:00:00Z,,
CDISCPILOT01,01-701-1287,1287,701,USA,AE,2014-01-25,2014-07-26,2014-01-25,2014-07-26,2014-07-26T13:15,,,,,,,,,,,,NA,2014-01-17,-8,56,YEARS,18-64,F,WHITE,White,HISPANIC OR LATINO,Y,Xanomeline High Dose,Xan_Hi,Xanomeline High Dose,Xan_Hi,Xanomeline High Dose,Xanomeline High Dose,2014-01-25,2014-01-25T00:00:00Z,H,2014-07-26,2014-07-26T23:59:59Z,H,COMPLETED,2014-07-26,,2014-01-25,2014-07-26,183,,,,,5,RHINORRHOEA,RHINORRHOEA,"RESPIRATORY, THORACIC AND MEDIASTINAL DISORDERS",,RUNNY NOSE,,,HLT_0635,,HLGT_0460,,"RESPIRATORY, THORACIC AND MEDIASTINAL DISORDERS",,2014-07-09,2014-07-09,2014-07-09T00:00:00Z,,H,2014-07-12,2014-07-12,2014-07-12T23:59:59Z,,H,166,166,169,169,4,days,Y,,N,N,N,N,N,N,MILD,MILD,1,NONE,NONE,,E05,RECOVERED/RESOLVED,N,N,2014-07-26,2014-02-11T00:00:00Z,,
CDISCPILOT01,01-701-1294,1294,701,USA,AE,2013-03-24,2013-06-14,2013-03-24,2013-06-14,2013-10-08,,2013-10-08,,,,,,,,,,NA,2013-03-17,-7,67,YEARS,>64,M,WHITE,White,NOT HISPANIC OR LATINO,Y,Xanomeline Low Dose,Xan_Lo,Xanomeline Low Dose,Xan_Lo,Xanomeline Low Dose,Xanomeline Low Dose,2013-03-24,2013-03-24T00:00:00Z,H,2013-06-14,2013-06-14T23:59:59Z,H,DISCONTINUED,2013-06-14,,2013-03-24,2013-06-14,83,,,,,4,APPLICATION SITE PRURITUS,APPLICATION SITE PRURITUS,GENERAL DISORDERS AND ADMINISTRATION SITE CONDITIONS,,APPLICATION SITE ITCHING,,,HLT_0317,,HLGT_0338,,GENERAL DISORDERS AND ADMINISTRATION SITE CONDITIONS,,2013-05-19,2013-05-19,2013-05-19T00:00:00Z,,H,,,,,,57,57,,,,,Y,Y,N,N,N,N,N,N,MODERATE,MODERATE,2,POSSIBLE,POSSIBLE,,E07,NOT RECOVERED/NOT RESOLVED,N,N,2013-06-14,2013-05-19T00:00:00Z,54,mg
CDISCPILOT01,01-701-1294,1294,701,USA,AE,2013-03-24,2013-06-14,2013-03-24,2013-06-14,2013-10-08,,2013-10-08,,,,,,,,,,NA,2013-03-17,-7,67,YEARS,>64,M,WHITE,White,NOT HISPANIC OR LATINO,Y,Xanomeline Low Dose,Xan_Lo,Xanomeline Low Dose,Xan_Lo,Xanomeline Low Dose,Xanomeline Low Dose,2013-03-24,2013-03-24T00:00:00Z,H,2013-06-14,2013-06-14T23:59:59Z,H,DISCONTINUED,2013-06-14,,2013-03-24,2013-06-14,83,,,,,5,APPLICATION SITE ERYTHEMA,APPLICATION SITE ERYTHEMA,GENERAL DISORDERS AND ADMINISTRATION SITE CONDITIONS,,APPLICATION SITE REDNESS,,,HLT_0617,,HLGT_0152,,GENERAL DISORDERS AND ADMINISTRATION SITE CONDITIONS,,2013-05-19,2013-05-19,2013-05-19T00:00:00Z,,H,,,,,,57,57,,,,,Y,,N,N,N,N,N,N,MODERATE,MODERATE,2,PROBABLE,PROBABLE,,E08,NOT RECOVERED/NOT RESOLVED,N,N,2013-06-14,2013-05-19T00:00:00Z,54,mg
CDISCPILOT01,01-701-1294,1294,701,USA,AE,2013-03-24,2013-06-14,2013-03-24,2013-06-14,2013-10-08,,2013-10-08,,,,,,,,,,NA,2013-03-17,-7,67,YEARS,>64,M,WHITE,White,NOT HISPANIC OR LATINO,Y,Xanomeline Low Dose,Xan_Lo,Xanomeline Low Dose,Xan_Lo,Xanomeline Low Dose,Xanomeline Low Dose,2013-03-24,2013-03-24T00:00:00Z,H,2013-06-14,2013-06-14T23:59:59Z,H,DISCONTINUED,2013-06-14,,2013-03-24,2013-06-14,83,,,,,6,RASH ERYTHEMATOUS,RASH ERYTHEMATOUS,SKIN AND SUBCUTANEOUS TISSUE DISORDERS,,ERYTHEMATOUS RASH,,,HLT_0336,,HLGT_0701,,SKIN AND SUBCUTANEOUS TISSUE DISORDERS,,2013-06-10,2013-06-10,2013-06-10T00:00:00Z,,H,,,,,,79,79,,,,,Y,,N,N,N,N,N,N,MODERATE,MODERATE,2,PROBABLE,PROBABLE,,E09,NOT RECOVERED/NOT RESOLVED,N,N,2013-06-14,2013-06-10T00:00:00Z,54,mg
CDISCPILOT01,01-701-1294,1294,701,USA,AE,2013-03-24,2013-06-14,2013-03-24,2013-06-14,2013-10-08,,2013-10-08,,,,,,,,,,NA,2013-03-17,-7,67,YEARS,>64,M,WHITE,White,NOT HISPANIC OR LATINO,Y,Xanomeline Low Dose,Xan_Lo,Xanomeline Low Dose,Xan_Lo,Xanomeline Low Dose,Xanomeline Low Dose,2013-03-24,2013-03-24T00:00:00Z,H,2013-06-14,2013-06-14T23:59:59Z,H,DISCONTINUED,2013-06-14,,2013-03-24,2013-06-14,83,,,,,2,APPLICATION SITE PRURITUS,APPLICATION SITE PRURITUS,GENERAL DISORDERS AND ADMINISTRATION SITE CONDITIONS,,APPLICATION SITE ITCHING,,,HLT_0317,,HLGT_0338,,GENERAL DISORDERS AND ADMINISTRATION SITE CONDITIONS,,2013-05-19,2013-05-19,2013-05-19T00:00:00Z,,H,,,,,,57,57,,,,,Y,,N,N,N,N,N,N,MILD,MILD,1,POSSIBLE,POSSIBLE,,E07,NOT RECOVERED/NOT RESOLVED,N,N,2013-05-22,2013-05-19T00:00:00Z,54,mg
CDISCPILOT01,01-701-1294,1294,701,USA,AE,2013-03-24,2013-06-14,2013-03-24,2013-06-14,2013-10-08,,2013-10-08,,,,,,,,,,NA,2013-03-17,-7,67,YEARS,>64,M,WHITE,White,NOT HISPANIC OR LATINO,Y,Xanomeline Low Dose,Xan_Lo,Xanomeline Low Dose,Xan_Lo,Xanomeline Low Dose,Xanomeline Low Dose,2013-03-24,2013-03-24T00:00:00Z,H,2013-06-14,2013-06-14T23:59:59Z,H,DISCONTINUED,2013-06-14,,2013-03-24,2013-06-14,83,,,,,3,APPLICATION SITE ERYTHEMA,APPLICATION SITE ERYTHEMA,GENERAL DISORDERS AND ADMINISTRATION SITE CONDITIONS,,APPLICATION SITE REDNESS,,,HLT_0617,,HLGT_0152,,GENERAL DISORDERS AND ADMINISTRATION SITE CONDITIONS,,2013-05-19,2013-05-19,2013-05-19T00:00:00Z,,H,,,,,,57,57,,,,,Y,,N,N,N,N,N,N,MILD,MILD,1,PROBABLE,PROBABLE,,E08,NOT RECOVERED/NOT RESOLVED,N,N,2013-05-22,2013-05-19T00:00:00Z,54,mg
CDISCPILOT01,01-701-1302,1302,701,USA,AE,2013-08-29,2013-11-05,2013-08-29,2013-11-05,2014-02-13,,2014-02-13,,,,,,,,,,NA,2013-08-20,-9,61,YEARS,18-64,M,WHITE,White,NOT HISPANIC OR LATINO,Y,Xanomeline High Dose,Xan_Hi,Xanomeline High Dose,Xan_Hi,Xanomeline High Dose,Xanomeline High Dose,2013-08-29,2013-08-29T00:00:00Z,H,2013-11-05,2013-11-05T23:59:59Z,H,DISCONTINUED,2013-11-05,,2013-08-29,2013-11-05,69,,,,,9,DIZZINESS,DIZZINESS,NERVOUS SYSTEM DISORDERS,,DIZZY,,,HLT_0619,,HLGT_0751,,NERVOUS SYSTEM DISORDERS,,2013-09-02,2013-09-02,2013-09-02T00:00:00Z,,H,2013-09-03,2013-09-03,2013-09-03T23:59:59Z,,H,5,5,6,6,2,days,Y,Y,N,N,N,N,N,N,MODERATE,MODERATE,2,REMOTE,REMOTE,,E17,RECOVERED/RESOLVED,N,N,2013-09-15,2013-09-02T00:00:00Z,54,mg
CDISCPILOT01,01-701-1302,1302,701,USA,AE,2013-08-29,2013-11-05,2013-08-29,2013-11-05,2014-02-13,,2014-02-13,,,,,,,,,,NA,2013-08-20,-9,61,YEARS,18-64,M,WHITE,White,NOT HISPANIC OR LATINO,Y,Xanomeline High Dose,Xan_Hi,Xanomeline High Dose,Xan_Hi,Xanomeline High Dose,Xanomeline High Dose,2013-08-29,2013-08-29T00:00:00Z,H,2013-11-05,2013-11-05T23:59:59Z,H,DISCONTINUED,2013-11-05,,2013-08-29,2013-11-05,69,,,,,18,MALAISE,MALAISE,GENERAL DISORDERS AND ADMINISTRATION SITE CONDITIONS,,MALAISE,,,HLT_0456,,HLGT_0178,,GENERAL DISORDERS AND ADMINISTRATION SITE CONDITIONS,,2013-09-02,2013-09-02,2013-09-02T00:00:00Z,,H,,,,,,5,5,,,,,Y,,N,N,N,N,N,N,MODERATE,MODERATE,2,REMOTE,REMOTE,,E16,NOT RECOVERED/NOT RESOLVED,N,N,2013-11-05,2013-09-02T00:00:00Z,54,mg
CDISCPILOT01,01-701-1302,1302,701,USA,AE,2013-08-29,2013-11-05,2013-08-29,2013-11-05,2014-02-13,,2014-02-13,,,,,,,,,,NA,2013-08-20,-9,61,YEARS,18-64,M,WHITE,White,NOT HISPANIC OR LATINO,Y,Xanomeline High Dose,Xan_Hi,Xanomeline High Dose,Xan_Hi,Xanomeline High Dose,Xanomeline High Dose,2013-08-29,2013-08-29T00:00:00Z,H,2013-11-05,2013-11-05T23:59:59Z,H,DISCONTINUED,2013-11-05,,2013-08-29,2013-11-05,69,,,,,1,APPLICATION SITE PERSPIRATION,APPLICATION SITE PERSPIRATION,GENERAL DISORDERS AND ADMINISTRATION SITE CONDITIONS,,APPLICATION SITE PERSPIRATION,,,HLT_0283,,HLGT_0403,,GENERAL DISORDERS AND ADMINISTRATION SITE CONDITIONS,,2013-08-30,2013-08-30,2013-08-30T00:00:00Z,,H,,,,,,2,2,,,,,Y,,N,N,N,N,N,N,MILD,MILD,1,POSSIBLE,POSSIBLE,,E21,NOT RECOVERED/NOT RESOLVED,N,N,2013-09-15,2013-08-30T00:00:00Z,54,mg
CDISCPILOT01,01-701-1302,1302,701,USA,AE,2013-08-29,2013-11-05,2013-08-29,2013-11-05,2014-02-13,,2014-02-13,,,,,,,,,,NA,2013-08-20,-9,61,YEARS,18-64,M,WHITE,White,NOT HISPANIC OR LATINO,Y,Xanomeline High Dose,Xan_Hi,Xanomeline High Dose,Xan_Hi,Xanomeline High Dose,Xanomeline High Dose,2013-08-29,2013-08-29T00:00:00Z,H,2013-11-05,2013-11-05T23:59:59Z,H,DISCONTINUED,2013-11-05,,2013-08-29,2013-11-05,69,,,,,2,HYPERHIDROSIS,HYPERHIDROSIS,SKIN AND SUBCUTANEOUS TISSUE DISORDERS,,PERSPIRATION EXCESSIVE,,,HLT_0587,,HLGT_0005,,SKIN AND SUBCUTANEOUS TISSUE DISORDERS,,2013-08-30,2013-08-30,2013-08-30T00:00:00Z,,H,,,,,,2,2,,,,,Y,,N,N,N,N,N,N,MILD,MILD,1,POSSIBLE,POSSIBLE,,E24,NOT RECOVERED/NOT RESOLVED,N,N,2013-09-15,2013-08-30T00:00:00Z,54,mg
CDISCPILOT01,01-701-1302,1302,701,USA,AE,2013-08-29,2013-11-05,2013-08-29,2013-11-05,2014-02-13,,2014-02-13,,,,,,,,,,NA,2013-08-20,-9,61,YEARS,18-64,M,WHITE,White,NOT HISPANIC OR LATINO,Y,Xanomeline High Dose,Xan_Hi,Xanomeline High Dose,Xan_Hi,Xanomeline High Dose,Xanomeline High Dose,2013-08-29,2013-08-29T00:00:00Z,H,2013-11-05,2013-11-05T23:59:59Z,H,DISCONTINUED,2013-11-05,,2013-08-29,2013-11-05,69,,,,,3,STOMACH DISCOMFORT,STOMACH DISCOMFORT,GASTROINTESTINAL DISORDERS,,STOMACH UPSET,,,HLT_0065,,HLGT_0183,,GASTROINTESTINAL DISORDERS,,2013-08-30,2013-08-30,2013-08-30T00:00:00Z,,H,,,,,,2,2,,,,,Y,,N,N,N,N,N,N,MILD,MILD,1,POSSIBLE,POSSIBLE,,E26,NOT RECOVERED/NOT RESOLVED,N,N,2013-09-15,2013-08-30T00:00:00Z,54,mg
CDISCPILOT01,01-701-1302,1302,701,USA,AE,2013-08-29,2013-11-05,2013-08-29,2013-11-05,2014-02-13,,2014-02-13,,,,,,,,,,NA,2013-08-20,-9,61,YEARS,18-64,M,WHITE,White,NOT HISPANIC OR LATINO,Y,Xanomeline High Dose,Xan_Hi,Xanomeline High Dose,Xan_Hi,Xanomeline High Dose,Xanomeline High Dose,2013-08-29,2013-08-29T00:00:00Z,H,2013-11-05,2013-11-05T23:59:59Z,H,DISCONTINUED,2013-11-05,,2013-08-29,2013-11-05,69,,,,,4,PAIN,PAIN,GENERAL DISORDERS AND ADMINISTRATION SITE CONDITIONS,,STINGING,,,HLT_0314,,HLGT_0478,,GENERAL DISORDERS AND ADMINISTRATION SITE CONDITIONS,,2013-08-31,2013-08-31,2013-08-31T00:00:00Z,,H,,,,,,3,3,,,,,Y,,N,N,N,N,N,N,MILD,MILD,1,POSSIBLE,POSSIBLE,,E22,NOT RECOVERED/NOT RESOLVED,N,N,2013-09-15,2013-08-31T00:00:00Z,54,mg
CDISCPILOT01,01-701-1302,1302,701,USA,AE,2013-08-29,2013-11-05,2013-08-29,2013-11-05,2014-02-13,,2014-02-13,,,,,,,,,,NA,2013-08-20,-9,61,YEARS,18-64,M,WHITE,White,NOT HISPANIC OR LATINO,Y,Xanomeline High Dose,Xan_Hi,Xanomeline High Dose,Xan_Hi,Xanomeline High Dose,Xanomeline High Dose,2013-08-29,2013-08-29T00:00:00Z,H,2013-11-05,2013-11-05T23:59:59Z,H,DISCONTINUED,2013-11-05,,2013-08-29,2013-11-05,69,,,,,5,NASAL CONGESTION,NASAL CONGESTION,"RESPIRATORY, THORACIC AND MEDIASTINAL DISORDERS",,NASAL CONGESTION,,,HLT_0118,,HLGT_0549,,"RESPIRATORY, THORACIC AND MEDIASTINAL DISORDERS",,2013-09-01,2013-09-01,2013-09-01T00:00:00Z,,H,,,,,,4,4,,,,,Y,,N,N,N,N,N,N,MILD,MILD,1,NONE,NONE,,E13,NOT RECOVERED/NOT RESOLVED,N,N,2013-09-15,2013-09-01T00:00:00Z,54,mg
CDISCPILOT01,01-701-1302,1302,701,USA,AE,2013-08-29,2013-11-05,2013-08-29,2013-11-05,2014-02-13,,2014-02-13,,,,,,,,,,NA,2013-08-20,-9,61,YEARS,18-64,M,WHITE,White,NOT HISPANIC OR LATINO,Y,Xanomeline High Dose,Xan_Hi,Xanomeline High Dose,Xan_Hi,Xanomeline High Dose,Xanomeline High Dose,2013-08-29,2013-08-29T00:00:00Z,H,2013-11-05,2013-11-05T23:59:59Z,H,DISCONTINUED,2013-11-05,,2013-08-29,2013-11-05,69,,,,,6,PHARYNGOLARYNGEAL PAIN,PHARYNGOLARYNGEAL PAIN,"RESPIRATORY, THORACIC AND MEDIASTINAL DISORDERS",,SORE THROAT,,,HLT_0130,,HLGT_0402,,"RESPIRATORY, THORACIC AND MEDIASTINAL DISORDERS",,2013-09-02,2013-09-02,2013-09-02T00:00:00Z,,H,,,,,,5,5,,,,,Y,,N,N,N,N,N,N,MILD,MILD,1,NONE,NONE,,E14,NOT RECOVERED/NOT RESOLVED,N,N,2013-09-15,2013-09-02T00:00:00Z,54,mg
CDISCPILOT01,01-701-1302,1302,701,USA,AE,2013-08-29,2013-11-05,2013-08-29,2013-11-05,2014-02-13,,2014-02-13,,,,,,,,,,NA,2013-08-20,-9,61,YEARS,18-64,M,WHITE,White,NOT HISPANIC OR LATINO,Y,Xanomeline High Dose,Xan_Hi,Xanomeline High Dose,Xan_Hi,Xanomeline High Dose,Xanomeline High Dose,2013-08-29,2013-08-29T00:00:00Z,H,2013-11-05,2013-11-05T23:59:59Z,H,DISCONTINUED,2013-11-05,,2013-08-29,2013-11-05,69,,,,,7,PRODUCTIVE COUGH,PRODUCTIVE COUGH,"RESPIRATORY, THORACIC AND MEDIASTINAL DISORDERS",,PRODUCTIVE COUGH,,,HLT_0545,,HLGT_0681,,"RESPIRATORY, THORACIC AND MEDIASTINAL DISORDERS",,2013-09-02,2013-09-02,2013-09-02T00:00:00Z,,H,,,,,,5,5,,,,,Y,,N,N,N,N,N,N,MILD,MILD,1,NONE,NONE,,E15,NOT RECOVERED/NOT RESOLVED,N,N,2013-09-15,2013-09-02T00:00:00Z,54,mg
CDISCPILOT01,01-701-1302,1302,701,USA,AE,2013-08-29,2013-11-05,2013-08-29,2013-11-05,2014-02-13,,2014-02-13,,,,,,,,,,NA,2013-08-20,-9,61,YEARS,18-64,M,WHITE,White,NOT HISPANIC OR LATINO,Y,Xanomeline High Dose,Xan_Hi,Xanomeline High Dose,Xan_Hi,Xanomeline High Dose,Xanomeline High Dose,2013-08-29,2013-08-29T00:00:00Z,H,2013-11-05,2013-11-05T23:59:59Z,H,DISCONTINUED,2013-11-05,,2013-08-29,2013-11-05,69,,,,,8,MALAISE,MALAISE,GENERAL DISORDERS AND ADMINISTRATION SITE CONDITIONS,,MALAISE,,,HLT_0456,,HLGT_0178,,GENERAL DISORDERS AND ADMINISTRATION SITE CONDITIONS,,2013-09-02,2013-09-02,2013-09-02T00:00:00Z,,H,,,,,,5,5,,,,,Y,,N,N,N,N,N,N,MILD,MILD,1,REMOTE,REMOTE,,E16,NOT RECOVERED/NOT RESOLVED,N,N,2013-09-15,2013-09-02T00:00:00Z,54,mg
CDISCPILOT01,01-701-1302,1302,701,USA,AE,2013-08-29,2013-11-05,2013-08-29,2013-11-05,2014-02-13,,2014-02-13,,,,,,,,,,NA,2013-08-20,-9,61,YEARS,18-64,M,WHITE,White,NOT HISPANIC OR LATINO,Y,Xanomeline High Dose,Xan_Hi,Xanomeline High Dose,Xan_Hi,Xanomeline High Dose,Xanomeline High Dose,2013-08-29,2013-08-29T00:00:00Z,H,2013-11-05,2013-11-05T23:59:59Z,H,DISCONTINUED,2013-11-05,,2013-08-29,2013-11-05,69,,,,,10,MYALGIA,MYALGIA,MUSCULOSKELETAL AND CONNECTIVE TISSUE DISORDERS,,MYALGIA,,,HLT_0700,,HLGT_0121,,MUSCULOSKELETAL AND CONNECTIVE TISSUE DISORDERS,,2013-09-02,2013-09-02,2013-09-02T00:00:00Z,,H,,,,,,5,5,,,,,Y,,N,N,N,N,N,N,MILD,MILD,1,POSSIBLE,POSSIBLE,,E18,NOT RECOVERED/NOT RESOLVED,N,N,2013-09-15,2013-09-02T00:00:00Z,54,mg
CDISCPILOT01,01-701-1302,1302,701,USA,AE,2013-08-29,2013-11-05,2013-08-29,2013-11-05,2014-02-13,,2014-02-13,,,,,,,,,,NA,2013-08-20,-9,61,YEARS,18-64,M,WHITE,White,NOT HISPANIC OR LATINO,Y,Xanomeline High Dose,Xan_Hi,Xanomeline High Dose,Xan_Hi,Xanomeline High Dose,Xanomeline High Dose,2013-08-29,2013-08-29T00:00:00Z,H,2013-11-05,2013-11-05T23:59:59Z,H,DISCONTINUED,2013-11-05,,2013-08-29,2013-11-05,69,,,,,11,DIZZINESS,DIZZINESS,NERVOUS SYSTEM DISORDERS,,LIGHTHEADEDNESS,,,HLT_0619,,HLGT_0751,,NERVOUS SYSTEM DISORDERS,,2013-09-04,2013-09-04,2013-09-04T00:00:00Z,,H,,,,,,7,7,,,,,Y,,N,N,N,N,N,N,MILD,MILD,1,POSSIBLE,POSSIBLE,,E20,NOT RECOVERED/NOT RESOLVED,N,N,2013-09-15,2013-09-04T00:00:00Z,54,mg
CDISCPILOT01,01-701-1302,1302,701,USA,AE,2013-08-29,2013-11-05,2013-08-29,2013-11-05,2014-02-13,,2014-02-13,,,,,,,,,,NA,2013-08-20,-9,61,YEARS,18-64,M,WHITE,White,NOT HISPANIC OR LATINO,Y,Xanomeline High Dose,Xan_Hi,Xanomeline High Dose,Xan_Hi,Xanomeline High Dose,Xanomeline High Dose,2013-08-29,2013-08-29T00:00:00Z,H,2013-11-05,2013-11-05T23:59:59Z,H,DISCONTINUED,2013-11-05,,2013-08-29,2013-11-05,69,,,,,12,CONTUSION,CONTUSION,"INJURY, POISONING AND PROCEDURAL COMPLICATIONS",,BRUISE,,,HLT_0713,,HLGT_0381,,"INJURY, POISONING AND PROCEDURAL COMPLICATIONS",,2013-09-05,2013-09-05,2013-09-05T00:00:00Z,,H,2013-10-08,2013-10-08,2013-10-08T23:59:59Z,,H,8,8,41,41,34,days,Y,,N,N,N,N,N,N,MILD,MILD,1,REMOTE,REMOTE,,E19,NOT RECOVERED/NOT RESOLVED,N,N,2013-09-15,2013-09-05T00:00:00Z,54,mg
CDISCPILOT01,01-701-1302,1302,701,USA,AE,2013-08-29,2013-11-05,2013-08-29,2013-11-05,2014-02-13,,2014-02-13,,,,,,,,,,NA,2013-08-20,-9,61,YEARS,18-64,M,WHITE,White,NOT HISPANIC OR LATINO,Y,Xanomeline High Dose,Xan_Hi,Xanomeline High Dose,Xan_Hi,Xanomeline High Dose,Xanomeline High Dose,2013-08-29,2013-08-29T00:00:00Z,H,2013-11-05,2013-11-05T23:59:59Z,H,DISCONTINUED,2013-11-05,,2013-08-29,2013-11-05,69,,,,,15,CONTUSION,CONTUSION,"INJURY, POISONING AND PROCEDURAL COMPLICATIONS",,BRUISE,,,HLT_0713,,HLGT_0381,,"INJURY, POISONING AND PROCEDURAL COMPLICATIONS",,2013-09-05,2013-09-05,2013-09-05T00:00:00Z,,H,2013-10-08,2013-10-08,2013-10-08T23:59:59Z,,H,8,8,41,41,34,days,Y,,N,N,N,N,N,N,MILD,MILD,1,REMOTE,REMOTE,,E19,RECOVERED/RESOLVED,N,N,2013-10-22,2013-09-05T00:00:00Z,54,mg
CDISCPILOT01,01-701-1302,1302,701,USA,AE,2013-08-29,2013-11-05,2013-08-29,2013-11-05,2014-02-13,,2014-02-13,,,,,,,,,,NA,2013-08-20,-9,61,YEARS,18-64,M,WHITE,White,NOT HISPANIC OR LATINO,Y,Xanomeline High Dose,Xan_Hi,Xanomeline High Dose,Xan_Hi,Xanomeline High Dose,Xanomeline High Dose,2013-08-29,2013-08-29T00:00:00Z,H,2013-11-05,2013-11-05T23:59:59Z,H,DISCONTINUED,2013-11-05,,2013-08-29,2013-11-05,69,,,,,13,HEADACHE,HEADACHE,NERVOUS SYSTEM DISORDERS,,HEADACHE,,,HLT_0064,,HLGT_0344,,NERVOUS SYSTEM DISORDERS,,2013-09-15,2013-09-15,2013-09-15T00:00:00Z,,H,,,,,,18,18,,,,,Y,,N,N,N,N,N,N,MILD,MILD,1,NONE,NONE,,E23,NOT RECOVERED/NOT RESOLVED,N,N,2013-09-15,2013-09-15T00:00:00Z,54,mg
CDISCPILOT01,01-701-1302,1302,701,USA,AE,2013-08-29,2013-11-05,2013-08-29,2013-11-05,2014-02-13,,2014-02-13,,,,,,,,,,NA,2013-08-20,-9,61,YEARS,18-64,M,WHITE,White,NOT HISPANIC OR LATINO,Y,Xanomeline High Dose,Xan_Hi,Xanomeline High Dose,Xan_Hi,Xanomeline High Dose,Xanomeline High Dose,2013-08-29,2013-08-29T00:00:00Z,H,2013-11-05,2013-11-05T23:59:59Z,H,DISCONTINUED,2013-11-05,,2013-08-29,2013-11-05,69,,,,,14,EPISTAXIS,EPISTAXIS,"RESPIRATORY, THORACIC AND MEDIASTINAL DISORDERS",,NOSE BLEED,,,HLT_0386,,HLGT_0577,,"RESPIRATORY, THORACIC AND MEDIASTINAL DISORDERS",,2013-09-30,2013-09-30,2013-09-30T00:00:00Z,,H,,,,,,33,33,,,,,Y,,N,N,N,N,N,N,MILD,MILD,1,REMOTE,REMOTE,,E25,NOT RECOVERED/NOT RESOLVED,N,N,2013-10-08,2013-09-15T00:00:00Z,,
CDISCPILOT01,01-701-1302,1302,701,USA,AE,2013-08-29,2013-11-05,2013-08-29,2013-11-05,2014-02-13,,2014-02-13,,,,,,,,,,NA,2013-08-20,-9,61,YEARS,18-64,M,WHITE,White,NOT HISPANIC OR LATINO,Y,Xanomeline High Dose,Xan_Hi,Xanomeline High Dose,Xan_Hi,Xanomeline High Dose,Xanomeline High Dose,2013-08-29,2013-08-29T00:00:00Z,H,2013-11-05,2013-11-05T23:59:59Z,H,DISCONTINUED,2013-11-05,,2013-08-29,2013-11-05,69,,,,,16,APPLICATION SITE ERYTHEMA,APPLICATION SITE ERYTHEMA,GENERAL DISORDERS AND ADMINISTRATION SITE CONDITIONS,,APPLICATION SITE REDNESS,,,HLT_0617,,HLGT_0152,,GENERAL DISORDERS AND ADMINISTRATION SITE CONDITIONS,,2013-10-15,2013-10-15,2013-10-15T00:00:00Z,,H,,,,,,48,48,,,,,Y,,N,N,N,N,N,N,MILD,MILD,1,PROBABLE,PROBABLE,,E27,NOT RECOVERED/NOT RESOLVED,N,N,2013-10-22,2013-09-15T00:00:00Z,,
CDISCPILOT01,01-701-1302,1302,701,USA,AE,2013-08-29,2013-11-05,2013-08-29,2013-11-05,2014-02-13,,2014-02-13,,,,,,,,,,NA,2013-08-20,-9,61,YEARS,18-64,M,WHITE,White,NOT HISPANIC OR LATINO,Y,Xanomeline High Dose,Xan_Hi,Xanomeline High Dose,Xan_Hi,Xanomeline High Dose,Xanomeline High Dose,2013-08-29,2013-08-29T00:00:00Z,H,2013-11-05,2013-11-05T23:59:59Z,H,DISCONTINUED,2013-11-05,,2013-08-29,2013-11-05,69,,,,,17,APPLICATION SITE PRURITUS,APPLICATION SITE PRURITUS,GENERAL DISORDERS AND ADMINISTRATION SITE CONDITIONS,,APPLICATION SITE ITCHING,,,HLT_0317,,HLGT_0338,,GENERAL DISORDERS AND ADMINISTRATION SITE CONDITIONS,,2013-10-15,2013-10-15,2013-10-15T00:00:00Z,,H,,,,,,48,48,,,,,Y,,N,N,N,N,N,N,MILD,MILD,1,PROBABLE,PROBABLE,,E28,NOT RECOVERED/NOT RESOLVED,N,N,2013-10-22,2013-09-15T00:00:00Z,,
CDISCPILOT01,01-701-1302,1302,701,USA,AE,2013-08-29,2013-11-05,2013-08-29,2013-11-05,2014-02-13,,2014-02-13,,,,,,,,,,NA,2013-08-20,-9,61,YEARS,18-64,M,WHITE,White,NOT HISPANIC OR LATINO,Y,Xanomeline High Dose,Xan_Hi,Xanomeline High Dose,Xan_Hi,Xanomeline High Dose,Xanomeline High Dose,2013-08-29,2013-08-29T00:00:00Z,H,2013-11-05,2013-11-05T23:59:59Z,H,DISCONTINUED,2013-11-05,,2013-08-29,2013-11-05,69,,,,,19,RESPIRATORY TRACT CONGESTION,RESPIRATORY TRACT CONGESTION,"RESPIRATORY, THORACIC AND MEDIASTINAL DISORDERS",,RESPIRATORY TRACT CONGESTION,,,HLT_0330,,HLGT_0424,,"RESPIRATORY, THORACIC AND MEDIASTINAL DISORDERS",,2013-10-23,2013-10-23,2013-10-23T00:00:00Z,,H,,,,,,56,56,,,,,Y,,N,N,N,N,N,N,MILD,MILD,1,NONE,NONE,,E29,NOT RECOVERED/NOT RESOLVED,N,N,2013-11-05,2013-09-15T00:00:00Z,,
CDISCPILOT01,01-701-1302,1302,701,USA,AE,2013-08-29,2013-11-05,2013-08-29,2013-11-05,2014-02-13,,2014-02-13,,,,,,,,,,NA,2013-08-20,-9,61,YEARS,18-64,M,WHITE,White,NOT HISPANIC OR LATINO,Y,Xanomeline High Dose,Xan_Hi,Xanomeline High Dose,Xan_Hi,Xanomeline High Dose,Xanomeline High Dose,2013-08-29,2013-08-29T00:00:00Z,H,2013-11-05,2013-11-05T23:59:59Z,H,DISCONTINUED,2013-11-05,,2013-08-29,2013-11-05,69,,,,,20,RHINITIS,RHINITIS,INFECTIONS AND INFESTATIONS,,CORYZA,,,HLT_0239,,HLGT_0322,,INFECTIONS AND INFESTATIONS,,2013-10-23,2013-10-23,2013-10-23T00:00:00Z,,H,,,,,,56,56,,,,,Y,,N,N,N,N,N,N,MILD,MILD,1,NONE,NONE,,E30,NOT RECOVERED/NOT RESOLVED,N,N,2013-11-05,2013-09-15T00:00:00Z,,
CDISCPILOT01,01-701-1302,1302,701,USA,AE,2013-08-29,2013-11-05,2013-08-29,2013-11-05,2014-02-13,,2014-02-13,,,,,,,,,,NA,2013-08-20,-9,61,YEARS,18-64,M,WHITE,White,NOT HISPANIC OR LATINO,Y,Xanomeline High Dose,Xan_Hi,Xanomeline High Dose,Xan_Hi,Xanomeline High Dose,Xanomeline High Dose,2013-08-29,2013-08-29T00:00:00Z,H,2013-11-05,2013-11-05T23:59:59Z,H,DISCONTINUED,2013-11-05,,2013-08-29,2013-11-05,69,,,,,21,FEELING ABNORMAL,FEELING ABNORMAL,GENERAL DISORDERS AND ADMINISTRATION SITE CONDITIONS,,FOGGY FEELING IN HEAD,,,HLT_0524,,HLGT_0749,,GENERAL DISORDERS AND ADMINISTRATION SITE CONDITIONS,,2013-10-24,2013-10-24,2013-10-24T00:00:00Z,,H,,,,,,57,57,,,,,Y,,N,N,N,N,N,N,MILD,MILD,1,POSSIBLE,POSSIBLE,,E31,NOT RECOVERED/NOT RESOLVED,N,N,2013-11-05,2013-09-15T00:00:00Z,,
CDISCPILOT01,01-701-1302,1302,701,USA,AE,2013-08-29,2013-11-05,2013-08-29,2013-11-05,2014-02-13,,2014-02-13,,,,,,,,,,NA,2013-08-20,-9,61,YEARS,18-64,M,WHITE,White,NOT HISPANIC OR LATINO,Y,Xanomeline High Dose,Xan_Hi,Xanomeline High Dose,Xan_Hi,Xanomeline High Dose,Xanomeline High Dose,2013-08-29,2013-08-29T00:00:00Z,H,2013-11-05,2013-11-05T23:59:59Z,H,DISCONTINUED,2013-11-05,,2013-08-29,2013-11-05,69,,,,,22,LISTLESS,LISTLESS,PSYCHIATRIC DISORDERS,,LISTLESSNESS,,,HLT_0657,,HLGT_0124,,PSYCHIATRIC DISORDERS,,2013-10-24,2013-10-24,2013-10-24T00:00:00Z,,H,,,,,,57,57,,,,,Y,,N,N,N,N,N,N,MILD,MILD,1,POSSIBLE,POSSIBLE,,E32,NOT RECOVERED/NOT RESOLVED,N,N,2013-11-05,2013-09-15T00:00:00Z,,
CDISCPILOT01,01-701-1302,1302,701,USA,AE,2013-08-29,2013-11-05,2013-08-29,2013-11-05,2014-02-13,,2014-02-13,,,,,,,,,,NA,2013-08-20,-9,61,YEARS,18-64,M,WHITE,White,NOT HISPANIC OR LATINO,Y,Xanomeline High Dose,Xan_Hi,Xanomeline High Dose,Xan_Hi,Xanomeline High Dose,Xanomeline High Dose,2013-08-29,2013-08-29T00:00:00Z,H,2013-11-05,2013-11-05T23:59:59Z,H,DISCONTINUED,2013-11-05,,2013-08-29,2013-11-05,69,,,,,23,LIBIDO DECREASED,LIBIDO DECREASED,PSYCHIATRIC DISORDERS,,LIBIDO DECREASED,,,HLT_0338,,HLGT_0496,,PSYCHIATRIC DISORDERS,,2013-10-24,2013-10-24,2013-10-24T00:00:00Z,,H,,,,,,57,57,,,,,Y,,N,N,N,N,N,N,MILD,MILD,1,POSSIBLE,POSSIBLE,,E33,NOT RECOVERED/NOT RESOLVED,N,N,2013-11-05,2013-09-15T00:00:00Z,,
CDISCPILOT01,01-701-1317,1317,701,USA,AE,2014-05-22,2014-11-20,2014-05-22,2014-11-20,2014-11-20T11:54,,,,,,,,,,,,NA,2014-05-10,-12,68,YEARS,>64,M,WHITE,White,NOT HISPANIC OR LATINO,Y,Xanomeline Low Dose,Xan_Lo,Xanomeline Low Dose,Xan_Lo,Xanomeline Low Dose,Xanomeline Low Dose,2014-05-22,2014-05-22T00:00:00Z,H,2014-11-20,2014-11-20T23:59:59Z,H,COMPLETED,2014-11-20,,2014-05-22,2014-11-20,183,,,,,7,DEPRESSED MOOD,DEPRESSED MOOD,PSYCHIATRIC DISORDERS,,DEPRESSED MOOD,,,HLT_0784,,HLGT_0122,,PSYCHIATRIC DISORDERS,,2014-07-04,2014-07-04,2014-07-04T00:00:00Z,,H,,,,,,44,44,,,,,Y,Y,N,N,N,N,N,N,MODERATE,MODERATE,2,POSSIBLE,POSSIBLE,,E16,NOT RECOVERED/NOT RESOLVED,N,N,2014-10-09,2014-07-04T00:00:00Z,54,mg
CDISCPILOT01,01-701-1317,1317,701,USA,AE,2014-05-22,2014-11-20,2014-05-22,2014-11-20,2014-11-20T11:54,,,,,,,,,,,,NA,2014-05-10,-12,68,YEARS,>64,M,WHITE,White,NOT HISPANIC OR LATINO,Y,Xanomeline Low Dose,Xan_Lo,Xanomeline Low Dose,Xan_Lo,Xanomeline Low Dose,Xanomeline Low Dose,2014-05-22,2014-05-22T00:00:00Z,H,2014-11-20,2014-11-20T23:59:59Z,H,COMPLETED,2014-11-20,,2014-05-22,2014-11-20,183,,,,,3,APPLICATION SITE ERYTHEMA,APPLICATION SITE ERYTHEMA,GENERAL DISORDERS AND ADMINISTRATION SITE CONDITIONS,,APPLICATION SITE REDNESS,,,HLT_0617,,HLGT_0152,,GENERAL DISORDERS AND ADMINISTRATION SITE CONDITIONS,,2014-06-23,2014-06-23,2014-06-23T00:00:00Z,,H,,,,,,33,33,,,,,Y,,N,N,N,N,N,N,MILD,MILD,1,POSSIBLE,POSSIBLE,,E13,NOT RECOVERED/NOT RESOLVED,N,N,2014-07-03,2014-06-23T00:00:00Z,54,mg
CDISCPILOT01,01-701-1317,1317,701,USA,AE,2014-05-22,2014-11-20,2014-05-22,2014-11-20,2014-11-20T11:54,,,,,,,,,,,,NA,2014-05-10,-12,68,YEARS,>64,M,WHITE,White,NOT HISPANIC OR LATINO,Y,Xanomeline Low Dose,Xan_Lo,Xanomeline Low Dose,Xan_Lo,Xanomeline Low Dose,Xanomeline Low Dose,2014-05-22,2014-05-22T00:00:00Z,H,2014-11-20,2014-11-20T23:59:59Z,H,COMPLETED,2014-11-20,,2014-05-22,2014-11-20,183,,,,,4,APPLICATION SITE PRURITUS,APPLICATION SITE PRURITUS,GENERAL DISORDERS AND ADMINISTRATION SITE CONDITIONS,,APPLICATION SITE ITCHING,,,HLT_0317,,HLGT_0338,,GENERAL DISORDERS AND ADMINISTRATION SITE CONDITIONS,,2014-06-23,2014-06-23,2014-06-23T00:00:00Z,,H,,,,,,33,33,,,,,Y,,N,N,N,N,N,N,MILD,MILD,1,POSSIBLE,POSSIBLE,,E14,NOT RECOVERED/NOT RESOLVED,N,N,2014-07-03,2014-06-23T00:00:00Z,54,mg
CDISCPILOT01,01-701-1317,1317,701,USA,AE,2014-05-22,2014-11-20,2014-05-22,2014-11-20,2014-11-20T11:54,,,,,,,,,,,,NA,2014-05-10,-12,68,YEARS,>64,M,WHITE,White,NOT HISPANIC OR LATINO,Y,Xanomeline Low Dose,Xan_Lo,Xanomeline Low Dose,Xan_Lo,Xanomeline Low Dose,Xanomeline Low Dose,2014-05-22,2014-05-22T00:00:00Z,H,2014-11-20,2014-11-20T23:59:59Z,H,COMPLETED,2014-11-20,,2014-05-22,2014-11-20,183,,,,,5,APPLICATION SITE URTICARIA,APPLICATION SITE URTICARIA,GENERAL DISORDERS AND ADMINISTRATION SITE CONDITIONS,,APPLICATION SITE URTICARIA,,,HLT_0196,,HLGT_0233,,GENERAL DISORDERS AND ADMINISTRATION SITE CONDITIONS,,2014-06-23,2014-06-23,2014-06-23T00:00:00Z,,H,,,,,,33,33,,,,,Y,,N,N,N,N,N,N,MILD,MILD,1,POSSIBLE,POSSIBLE,,E15,NOT RECOVERED/NOT RESOLVED,N,N,2014-07-03,2014-06-23T00:00:00Z,54,mg
CDISCPILOT01,01-701-1317,1317,701,USA,AE,2014-05-22,2014-11-20,2014-05-22,2014-11-20,2014-11-20T11:54,,,,,,,,,,,,NA,2014-05-10,-12,68,YEARS,>64,M,WHITE,White,NOT HISPANIC OR LATINO,Y,Xanomeline Low Dose,Xan_Lo,Xanomeline Low Dose,Xan_Lo,Xanomeline Low Dose,Xanomeline Low Dose,2014-05-22,2014-05-22T00:00:00Z,H,2014-11-20,2014-11-20T23:59:59Z,H,COMPLETED,2014-11-20,,2014-05-22,2014-11-20,183,,,,,6,DEPRESSED MOOD,DEPRESSED MOOD,PSYCHIATRIC DISORDERS,,DEPRESSED MOOD,,,HLT_0784,,HLGT_0122,,PSYCHIATRIC DISORDERS,,2014-07-04,2014-07-04,2014-07-04T00:00:00Z,,H,,,,,,44,44,,,,,Y,,N,N,N,N,N,N,MILD,MILD,1,POSSIBLE,POSSIBLE,,E16,NOT RECOVERED/NOT RESOLVED,N,N,2014-07-22,2014-07-04T00:00:00Z,54,mg
CDISCPILOT01,01-701-1317,1317,701,USA,AE,2014-05-22,2014-11-20,2014-05-22,2014-11-20,2014-11-20T11:54,,,,,,,,,,,,NA,2014-05-10,-12,68,YEARS,>64,M,WHITE,White,NOT HISPANIC OR LATINO,Y,Xanomeline Low Dose,Xan_Lo,Xanomeline Low Dose,Xan_Lo,Xanomeline Low Dose,Xanomeline Low Dose,2014-05-22,2014-05-22T00:00:00Z,H,2014-11-20,2014-11-20T23:59:59Z,H,COMPLETED,2014-11-20,,2014-05-22,2014-11-20,183,,,,,8,FATIGUE,FATIGUE,GENERAL DISORDERS AND ADMINISTRATION SITE CONDITIONS,,TIREDNESS,,,HLT_0043,,HLGT_0181,,GENERAL DISORDERS AND ADMINISTRATION SITE CONDITIONS,,2014-09-12,2014-09-12,2014-09-12T00:00:00Z,,H,,,,,,114,114,,,,,Y,,N,N,N,N,N,N,MILD,MILD,1,REMOTE,REMOTE,,E17,NOT RECOVERED/NOT RESOLVED,N,N,2014-10-09,2014-09-12T00:00:00Z,54,mg
CDISCPILOT01,01-701-1317,1317,701,USA,AE,2014-05-22,2014-11-20,2014-05-22,2014-11-20,2014-11-20T11:54,,,,,,,,,,,,NA,2014-05-10,-12,68,YEARS,>64,M,WHITE,White,NOT HISPANIC OR LATINO,Y,Xanomeline Low Dose,Xan_Lo,Xanomeline Low Dose,Xan_Lo,Xanomeline Low Dose,Xanomeline Low Dose,2014-05-22,2014-05-22T00:00:00Z,H,2014-11-20,2014-11-20T23:59:59Z,H,COMPLETED,2014-11-20,,2014-05-22,2014-11-20,183,,,,,9,DYSPHONIA,DYSPHONIA,"RESPIRATORY, THORACIC AND MEDIASTINAL DISORDERS",,HOARSENESS,,,HLT_0073,,HLGT_0274,,"RESPIRATORY, THORACIC AND MEDIASTINAL DISORDERS",,2014-11-03,2014-11-03,2014-11-03T00:00:00Z,,H,,,,,,166,166,,,,,Y,,N,N,N,N,N,N,MILD,MILD,1,REMOTE,REMOTE,,E18,NOT RECOVERED/NOT RESOLVED,N,N,2014-11-06,2014-11-03T00:00:00Z,54,mg
CDISCPILOT01,01-701-1324,1324,701,USA,AE,2012-10-02,2013-04-02,2012-10-02,2013-04-02,2013-04-02T11:35,,,,,,,,,,,,NA,2012-09-16,-16,79,YEARS,>64,M,WHITE,White,NOT HISPANIC OR LATINO,Y,Xanomeline Low Dose,Xan_Lo,Xanomeline Low Dose,Xan_Lo,Xanomeline Low Dose,Xanomeline Low Dose,2012-10-02,2012-10-02T00:00:00Z,H,2013-04-02,2013-04-02T23:59:59Z,H,COMPLETED,2013-04-02,,2012-10-02,2013-04-02,183,,,,,1,APPLICATION SITE ERYTHEMA,APPLICATION SITE ERYTHEMA,GENERAL DISORDERS AND ADMINISTRATION SITE CONDITIONS,,APPLICATION SITE ERYTHEMA,,,HLT_0617,,HLGT_0152,,GENERAL DISORDERS AND ADMINISTRATION SITE CONDITIONS,,2012-10-22,2012-10-22,2012-10-22T00:00:00Z,,H,,,,,,21,21,,,,,Y,Y,N,N,N,N,N,N,MILD,MILD,1,PROBABLE,PROBABLE,,E04,NOT RECOVERED/NOT RESOLVED,N,N,2012-10-30,2012-10-22T00:00:00Z,54,mg
CDISCPILOT01,01-701-1324,1324,701,USA,AE,2012-10-02,2013-04-02,2012-10-02,2013-04-02,2013-04-02T11:35,,,,,,,,,,,,NA,2012-09-16,-16,79,YEARS,>64,M,WHITE,White,NOT HISPANIC OR LATINO,Y,Xanomeline Low Dose,Xan_Lo,Xanomeline Low Dose,Xan_Lo,Xanomeline Low Dose,Xanomeline Low Dose,2012-10-02,2012-10-02T00:00:00Z,H,2013-04-02,2013-04-02T23:59:59Z,H,COMPLETED,2013-04-02,,2012-10-02,2013-04-02,183,,,,,2,APPLICATION SITE PRURITUS,APPLICATION SITE PRURITUS,GENERAL DISORDERS AND ADMINISTRATION SITE CONDITIONS,,APPLICATION SITE ITCHING,,,HLT_0317,,HLGT_0338,,GENERAL DISORDERS AND ADMINISTRATION SITE CONDITIONS,,2012-12-02,2012-12-02,2012-12-02T00:00:00Z,,H,,,,,,62,62,,,,,Y,,N,N,N,N,N,N,MILD,MILD,1,PROBABLE,PROBABLE,,E06,NOT RECOVERED/NOT RESOLVED,N,N,2012-12-25,2012-12-02T00:00:00Z,54,mg
CDISCPILOT01,01-701-1324,1324,701,USA,AE,2012-10-02,2013-04-02,2012-10-02,2013-04-02,2013-04-02T11:35,,,,,,,,,,,,NA,2012-09-16,-16,79,YEARS,>64,M,WHITE,White,NOT HISPANIC OR LATINO,Y,Xanomeline Low Dose,Xan_Lo,Xanomeline Low Dose,Xan_Lo,Xanomeline Low Dose,Xanomeline Low Dose,2012-10-02,2012-10-02T00:00:00Z,H,2013-04-02,2013-04-02T23:59:59Z,H,COMPLETED,2013-04-02,,2012-10-02,2013-04-02,183,,,,,3,APPLICATION SITE VESICLES,APPLICATION SITE VESICLES,GENERAL DISORDERS AND ADMINISTRATION SITE CONDITIONS,,APPLICATION SITE BLISTER,,,HLT_0180,,HLGT_0576,,GENERAL DISORDERS AND ADMINISTRATION SITE CONDITIONS,,2012-12-25,2012-12-25,2012-12-25T00:00:00Z,,H,2013-01-16,2013-01-16,2013-01-16T23:59:59Z,,H,85,85,107,107,23,days,Y,,N,N,N,N,N,N,MILD,MILD,1,PROBABLE,PROBABLE,,E05,NOT RECOVERED/NOT RESOLVED,N,N,2012-12-25,2012-12-25T00:00:00Z,54,mg
CDISCPILOT01,01-701-1324,1324,701,USA,AE,2012-10-02,2013-04-02,2012-10-02,2013-04-02,2013-04-02T11:35,,,,,,,,,,,,NA,2012-09-16,-16,79,YEARS,>64,M,WHITE,White,NOT HISPANIC OR LATINO,Y,Xanomeline Low Dose,Xan_Lo,Xanomeline Low Dose,Xan_Lo,Xanomeline Low Dose,Xanomeline Low Dose,2012-10-02,2012-10-02T00:00:00Z,H,2013-04-02,2013-04-02T23:59:59Z,H,COMPLETED,2013-04-02,,2012-10-02,2013-04-02,183,,,,,4,APPLICATION SITE VESICLES,APPLICATION SITE VESICLES,GENERAL DISORDERS AND ADMINISTRATION SITE CONDITIONS,,APPLICATION SITE BLISTER,,,HLT_0180,,HLGT_0576,,GENERAL DISORDERS AND ADMINISTRATION SITE CONDITIONS,,2012-12-25,2012-12-25,2012-12-25T00:00:00Z,,H,2013-01-16,2013-01-16,2013-01-16T23:59:59Z,,H,85,85,107,107,23,days,Y,,N,N,N,N,N,N,MILD,MILD,1,PROBABLE,PROBABLE,,E05,RECOVERED/RESOLVED,N,N,2013-01-22,2012-12-25T00:00:00Z,54,mg
CDISCPILOT01,01-701-1341,1341,701,USA,AE,2013-01-05,2013-02-07,2013-01-05,2013-01-26,2013-02-21,,,,,,,,,,,,NA,2012-12-22,-14,51,YEARS,18-64,M,WHITE,White,NOT HISPANIC OR LATINO,Y,Xanomeline Low Dose,Xan_Lo,Xanomeline Low Dose,Xan_Lo,Xanomeline Low Dose,Xanomeline Low Dose,2013-01-05,2013-01-05T00:00:00Z,H,2013-01-26,2013-01-26T23:59:59Z,H,DISCONTINUED,2013-02-07,,2013-01-05,2013-02-07,22,,,,,1,APPLICATION SITE PRURITUS,APPLICATION SITE PRURITUS,GENERAL DISORDERS AND ADMINISTRATION SITE CONDITIONS,,APPLICATION SITE ITCHING,,,HLT_0317,,HLGT_0338,,GENERAL DISORDERS AND ADMINISTRATION SITE CONDITIONS,,2013-01-19,2013-01-19,2013-01-19T00:00:00Z,,H,,,,,,15,15,,,,,Y,Y,N,N,N,N,N,N,MODERATE,MODERATE,2,PROBABLE,PROBABLE,,E09,NOT RECOVERED/NOT RESOLVED,N,N,2013-02-07,2013-01-19T00:00:00Z,54,mg
CDISCPILOT01,01-701-1341,1341,701,USA,AE,2013-01-05,2013-02-07,2013-01-05,2013-01-26,2013-02-21,,,,,,,,,,,,NA,2012-12-22,-14,51,YEARS,18-64,M,WHITE,White,NOT HISPANIC OR LATINO,Y,Xanomeline Low Dose,Xan_Lo,Xanomeline Low Dose,Xan_Lo,Xanomeline Low Dose,Xanomeline Low Dose,2013-01-05,2013-01-05T00:00:00Z,H,2013-01-26,2013-01-26T23:59:59Z,H,DISCONTINUED,2013-02-07,,2013-01-05,2013-02-07,22,,,,,2,APPLICATION SITE ERYTHEMA,APPLICATION SITE ERYTHEMA,GENERAL DISORDERS AND ADMINISTRATION SITE CONDITIONS,,APPLICATION SITE REDNESS,,,HLT_0617,,HLGT_0152,,GENERAL DISORDERS AND ADMINISTRATION SITE CONDITIONS,,2013-01-19,2013-01-19,2013-01-19T00:00:00Z,,H,,,,,,15,15,,,,,Y,,N,N,N,N,N,N,MODERATE,MODERATE,2,PROBABLE,PROBABLE,,E10,NOT RECOVERED/NOT RESOLVED,N,N,2013-02-07,2013-01-19T00:00:00Z,54,mg
CDISCPILOT01,01-701-1341,1341,701,USA,AE,2013-01-05,2013-02-07,2013-01-05,2013-01-26,2013-02-21,,,,,,,,,,,,NA,2012-12-22,-14,51,YEARS,18-64,M,WHITE,White,NOT HISPANIC OR LATINO,Y,Xanomeline Low Dose,Xan_Lo,Xanomeline Low Dose,Xan_Lo,Xanomeline Low Dose,Xanomeline Low Dose,2013-01-05,2013-01-05T00:00:00Z,H,2013-01-26,2013-01-26T23:59:59Z,H,DISCONTINUED,2013-02-07,,2013-01-05,2013-02-07,22,,,,,3,APPLICATION SITE PRURITUS,APPLICATION SITE PRURITUS,GENERAL DISORDERS AND ADMINISTRATION SITE CONDITIONS,,APPLICATION SITE ITCHING,,,HLT_0317,,HLGT_0338,,GENERAL DISORDERS AND ADMINISTRATION SITE CONDITIONS,,2013-01-26,2013-01-26,2013-01-26T00:00:00Z,,H,2013-01-30,2013-01-30,2013-01-30T23:59:59Z,,H,22,22,26,26,5,days,Y,,N,N,N,N,N,N,MODERATE,MODERATE,2,PROBABLE,PROBABLE,,E11,RECOVERED/RESOLVED,N,N,2013-02-07,2013-01-26T00:00:00Z,54,mg
CDISCPILOT01,01-701-1341,1341,701,USA,AE,2013-01-05,2013-02-07,2013-01-05,2013-01-26,2013-02-21,,,,,,,,,,,,NA,2012-12-22,-14,51,YEARS,18-64,M,WHITE,White,NOT HISPANIC OR LATINO,Y,Xanomeline Low Dose,Xan_Lo,Xanomeline Low Dose,Xan_Lo,Xanomeline Low Dose,Xanomeline Low Dose,2013-01-05,2013-01-05T00:00:00Z,H,2013-01-26,2013-01-26T23:59:59Z,H,DISCONTINUED,2013-02-07,,2013-01-05,2013-02-07,22,,,,,4,APPLICATION SITE ERYTHEMA,APPLICATION SITE ERYTHEMA,GENERAL DISORDERS AND ADMINISTRATION SITE CONDITIONS,,APPLICATION SITE REDNESS,,,HLT_0617,,HLGT_0152,,GENERAL DISORDERS AND ADMINISTRATION SITE CONDITIONS,,2013-01-26,2013-01-26,2013-01-26T00:00:00Z,,H,,,,,,22,22,,,,,Y,,N,N,N,N,N,N,MODERATE,MODERATE,2,PROBABLE,PROBABLE,,E12,NOT RECOVERED/NOT RESOLVED,N,N,2013-02-07,2013-01-26T00:00:00Z,54,mg
CDISCPILOT01,01-701-1341,1341,701,USA,AE,2013-01-05,2013-02-07,2013-01-05,2013-01-26,2013-02-21,,,,,,,,,,,,NA,2012-12-22,-14,51,YEARS,18-64,M,WHITE,White,NOT HISPANIC OR LATINO,Y,Xanomeline Low Dose,Xan_Lo,Xanomeline Low Dose,Xan_Lo,Xanomeline Low Dose,Xanomeline Low Dose,2013-01-05,2013-01-05T00:00:00Z,H,2013-01-26,2013-01-26T23:59:59Z,H,DISCONTINUED,2013-02-07,,2013-01-05,2013-02-07,22,,,,,5,APPLICATION SITE IRRITATION,APPLICATION SITE IRRITATION,GENERAL DISORDERS AND ADMINISTRATION SITE CONDITIONS,,APPLICATION SITE BURNING,,,HLT_0061,,HLGT_0346,,GENERAL DISORDERS AND ADMINISTRATION SITE CONDITIONS,,2013-01-26,2013-01-26,2013-01-26T00:00:00Z,,H,2013-01-30,2013-01-30,2013-01-30T23:59:59Z,,H,22,22,26,26,5,days,Y,,N,N,N,N,N,N,MODERATE,MODERATE,2,PROBABLE,PROBABLE,,E13,RECOVERED/RESOLVED,N,N,2013-02-07,2013-01-26T00:00:00Z,54,mg
CDISCPILOT01,01-701-1360,1360,701,USA,AE,2013-07-31,2013-08-14,2013-07-31,2013-08-05,2014-02-11,,2014-02-11,,,,,,,,,,NA,2013-07-24,-7,67,YEARS,>64,M,WHITE,White,NOT HISPANIC OR LATINO,Y,Xanomeline High Dose,Xan_Hi,Xanomeline Low Dose,Xan_Lo,Xanomeline High Dose,Xanomeline Low Dose,2013-07-31,2013-07-31T00:00:00Z,H,2013-08-05,2013-08-05T23:59:59Z,H,DISCONTINUED,2013-08-14,,2013-07-31,2013-08-14,6,,,,,1,APPLICATION SITE ERYTHEMA,APPLICATION SITE ERYTHEMA,GENERAL DISORDERS AND ADMINISTRATION SITE CONDITIONS,,APPLICATION SITE ERYTHEMA,,,HLT_0617,,HLGT_0152,,GENERAL DISORDERS AND ADMINISTRATION SITE CONDITIONS,,2013-08-02,2013-08-02,2013-08-02T00:00:00Z,,H,,,,,,3,3,,,,,Y,Y,N,N,N,N,N,N,MODERATE,MODERATE,2,PROBABLE,PROBABLE,,E08,NOT RECOVERED/NOT RESOLVED,N,N,2013-08-14,2013-08-02T00:00:00Z,54,mg
CDISCPILOT01,01-701-1360,1360,701,USA,AE,2013-07-31,2013-08-14,2013-07-31,2013-08-05,2014-02-11,,2014-02-11,,,,,,,,,,NA,2013-07-24,-7,67,YEARS,>64,M,WHITE,White,NOT HISPANIC OR LATINO,Y,Xanomeline High Dose,Xan_Hi,Xanomeline Low Dose,Xan_Lo,Xanomeline High Dose,Xanomeline Low Dose,2013-07-31,2013-07-31T00:00:00Z,H,2013-08-05,2013-08-05T23:59:59Z,H,DISCONTINUED,2013-08-14,,2013-07-31,2013-08-14,6,,,,,2,APPLICATION SITE PRURITUS,APPLICATION SITE PRURITUS,GENERAL DISORDERS AND ADMINISTRATION SITE CONDITIONS,,APPLICATION SITE ITCHING,,,HLT_0317,,HLGT_0338,,GENERAL DISORDERS AND ADMINISTRATION SITE CONDITIONS,,2013-08-02,2013-08-02,2013-08-02T00:00:00Z,,H,,,,,,3,3,,,,,Y,,N,N,N,N,N,N,MODERATE,MODERATE,2,PROBABLE,PROBABLE,,E09,NOT RECOVERED/NOT RESOLVED,N,N,2013-08-14,2013-08-02T00:00:00Z,54,mg
CDISCPILOT01,01-701-1360,1360,701,USA,AE,2013-07-31,2013-08-14,2013-07-31,2013-08-05,2014-02-11,,2014-02-11,,,,,,,,,,NA,2013-07-24,-7,67,YEARS,>64,M,WHITE,White,NOT HISPANIC OR LATINO,Y,Xanomeline High Dose,Xan_Hi,Xanomeline Low Dose,Xan_Lo,Xanomeline High Dose,Xanomeline Low Dose,2013-07-31,2013-07-31T00:00:00Z,H,2013-08-05,2013-08-05T23:59:59Z,H,DISCONTINUED,2013-08-14,,2013-07-31,2013-08-14,6,,,,,3,APPLICATION SITE VESICLES,APPLICATION SITE VESICLES,GENERAL DISORDERS AND ADMINISTRATION SITE CONDITIONS,,APPLICATION SITE BLISTER,,,HLT_0180,,HLGT_0576,,GENERAL DISORDERS AND ADMINISTRATION SITE CONDITIONS,,2013-08-05,2013-08-05,2013-08-05T00:00:00Z,,H,,,,,,6,6,,,,,Y,,N,N,N,N,N,N,MODERATE,MODERATE,2,PROBABLE,PROBABLE,,E10,NOT RECOVERED/NOT RESOLVED,N,N,2013-08-14,2013-08-05T00:00:00Z,54,mg
CDISCPILOT01,01-701-1363,1363,701,USA,AE,2013-05-30,2013-11-27,2013-05-30,2013-11-27,2013-11-27T10:00,,,,,,,,,,,,NA,2013-05-20,-10,81,YEARS,>64,F,BLACK OR AFRICAN AMERICAN,Non-white,NOT HISPANIC OR LATINO,Y,Placebo,Pbo,Placebo,Pbo,Placebo,Placebo,2013-05-30,2013-05-30T00:00:00Z,H,2013-11-27,2013-11-27T23:59:59Z,H,COMPLETED,2013-11-27,,2013-05-30,2013-11-27,182,,,,,1,NAUSEA,NAUSEA,GASTROINTESTINAL DISORDERS,,NAUSEA,,,HLT_0742,,HLGT_0326,,GASTROINTESTINAL DISORDERS,,2013-06-14,2013-06-14,2013-06-14T00:00:00Z,,H,2013-06-15,2013-06-15,2013-06-15T23:59:59Z,,H,16,16,17,17,2,days,Y,Y,N,N,N,N,N,N,MILD,MILD,1,REMOTE,REMOTE,,E09,RECOVERED/RESOLVED,N,N,2013-06-25,2013-06-14T00:00:00Z,0,mg
CDISCPILOT01,01-701-1363,1363,701,USA,AE,2013-05-30,2013-11-27,2013-05-30,2013-11-27,2013-11-27T10:00,,,,,,,,,,,,NA,2013-05-20,-10,81,YEARS,>64,F,BLACK OR AFRICAN AMERICAN,Non-white,NOT HISPANIC OR LATINO,Y,Placebo,Pbo,Placebo,Pbo,Placebo,Placebo,2013-05-30,2013-05-30T00:00:00Z,H,2013-11-27,2013-11-27T23:59:59Z,H,COMPLETED,2013-11-27,,2013-05-30,2013-11-27,182,,,,,3,APPLICATION SITE PRURITUS,APPLICATION SITE PRURITUS,GENERAL DISORDERS AND ADMINISTRATION SITE CONDITIONS,,APPLICATION SITE ITCHING,,,HLT_0317,,HLGT_0338,,GENERAL DISORDERS AND ADMINISTRATION SITE CONDITIONS,,2013-07-16,2013-07-16,2013-07-16T00:00:00Z,,H,,,,,,48,48,,,,,Y,,N,N,N,N,N,N,MILD,MILD,1,PROBABLE,PROBABLE,,E11,NOT RECOVERED/NOT RESOLVED,N,N,2013-07-24,2013-07-16T00:00:00Z,0,mg
CDISCPILOT01,01-701-1363,1363,701,USA,AE,2013-05-30,2013-11-27,2013-05-30,2013-11-27,2013-11-27T10:00,,,,,,,,,,,,NA,2013-05-20,-10,81,YEARS,>64,F,BLACK OR AFRICAN AMERICAN,Non-white,NOT HISPANIC OR LATINO,Y,Placebo,Pbo,Placebo,Pbo,Placebo,Placebo,2013-05-30,2013-05-30T00:00:00Z,H,2013-11-27,2013-11-27T23:59:59Z,H,COMPLETED,2013-11-27,,2013-05-30,2013-11-27,182,,,,,5,BACK PAIN,BACK PAIN,MUSCULOSKELETAL AND CONNECTIVE TISSUE DISORDERS,,BACKACHE,,,HLT_0115,,HLGT_0508,,MUSCULOSKELETAL AND CONNECTIVE TISSUE DISORDERS,,2013-10-13,2013-10-13,2013-10-13T00:00:00Z,,H,2013-10-15,2013-10-15,2013-10-15T23:59:59Z,,H,137,137,139,139,3,days,Y,,N,N,N,N,N,N,MILD,MILD,1,NONE,NONE,,E13,NOT RECOVERED/NOT RESOLVED,N,N,2013-10-14,2013-10-13T00:00:00Z,0,mg
CDISCPILOT01,01-701-1363,1363,701,USA,AE,2013-05-30,2013-11-27,2013-05-30,2013-11-27,2013-11-27T10:00,,,,,,,,,,,,NA,2013-05-20,-10,81,YEARS,>64,F,BLACK OR AFRICAN AMERICAN,Non-white,NOT HISPANIC OR LATINO,Y,Placebo,Pbo,Placebo,Pbo,Placebo,Placebo,2013-05-30,2013-05-30T00:00:00Z,H,2013-11-27,2013-11-27T23:59:59Z,H,COMPLETED,2013-11-27,,2013-05-30,2013-11-27,182,,,,,6,BACK PAIN,BACK PAIN,MUSCULOSKELETAL AND CONNECTIVE TISSUE DISORDERS,,BACKACHE,,,HLT_0115,,HLGT_0508,,MUSCULOSKELETAL AND CONNECTIVE TISSUE DISORDERS,,2013-10-13,2013-10-13,2013-10-13T00:00:00Z,,H,2013-10-15,2013-10-15,2013-10-15T23:59:59Z,,H,137,137,139,139,3,days,Y,,N,N,N,N,N,N,MILD,MILD,1,NONE,NONE,,E13,RECOVERED/RESOLVED,N,N,2013-11-13,2013-10-13T00:00:00Z,0,mg
CDISCPILOT01,01-701-1383,1383,701,USA,AE,2013-02-04,2013-08-06,2013-02-04,2013-08-06,2013-08-06T12:00,,,,,,,,,,,,NA,2013-01-22,-13,72,YEARS,>64,F,WHITE,White,NOT HISPANIC OR LATINO,Y,Xanomeline High Dose,Xan_Hi,Xanomeline High Dose,Xan_Hi,Xanomeline High Dose,Xanomeline High Dose,2013-02-04,2013-02-04T00:00:00Z,H,2013-08-06,2013-08-06T23:59:59Z,H,COMPLETED,2013-08-06,,2013-02-04,2013-08-06,184,,,,,7,APPLICATION SITE PRURITUS,APPLICATION SITE PRURITUS,GENERAL DISORDERS AND ADMINISTRATION SITE CONDITIONS,,APPLICATION SITE ITCHING,,,HLT_0317,,HLGT_0338,,GENERAL DISORDERS AND ADMINISTRATION SITE CONDITIONS,,2013-03-23,2013-03-23,2013-03-23T00:00:00Z,,H,,,,,,48,48,,,,,Y,Y,N,N,N,N,N,N,MODERATE,MODERATE,2,POSSIBLE,POSSIBLE,,E07,NOT RECOVERED/NOT RESOLVED,N,N,2013-05-30,2013-02-19T00:00:00Z,,
CDISCPILOT01,01-701-1383,1383,701,USA,AE,2013-02-04,2013-08-06,2013-02-04,2013-08-06,2013-08-06T12:00,,,,,,,,,,,,NA,2013-01-22,-13,72,YEARS,>64,F,WHITE,White,NOT HISPANIC OR LATINO,Y,Xanomeline High Dose,Xan_Hi,Xanomeline High Dose,Xan_Hi,Xanomeline High Dose,Xanomeline High Dose,2013-02-04,2013-02-04T00:00:00Z,H,2013-08-06,2013-08-06T23:59:59Z,H,COMPLETED,2013-08-06,,2013-02-04,2013-08-06,184,,,,,8,APPLICATION SITE IRRITATION,APPLICATION SITE IRRITATION,GENERAL DISORDERS AND ADMINISTRATION SITE CONDITIONS,,APPLICATION SITE BURNING,,,HLT_0061,,HLGT_0346,,GENERAL DISORDERS AND ADMINISTRATION SITE CONDITIONS,,2013-04-12,2013-04-12,2013-04-12T00:00:00Z,,H,,,,,,68,68,,,,,Y,,N,N,N,N,N,N,MODERATE,MODERATE,2,POSSIBLE,POSSIBLE,,E09,NOT RECOVERED/NOT RESOLVED,N,N,2013-05-30,2013-02-19T00:00:00Z,,
CDISCPILOT01,01-701-1383,1383,701,USA,AE,2013-02-04,2013-08-06,2013-02-04,2013-08-06,2013-08-06T12:00,,,,,,,,,,,,NA,2013-01-22,-13,72,YEARS,>64,F,WHITE,White,NOT HISPANIC OR LATINO,Y,Xanomeline High Dose,Xan_Hi,Xanomeline High Dose,Xan_Hi,Xanomeline High Dose,Xanomeline High Dose,2013-02-04,2013-02-04T00:00:00Z,H,2013-08-06,2013-08-06T23:59:59Z,H,COMPLETED,2013-08-06,,2013-02-04,2013-08-06,184,,,,,12,COUGH,COUGH,"RESPIRATORY, THORACIC AND MEDIASTINAL DISORDERS",,COUGH,,,HLT_0701,,HLGT_0280,,"RESPIRATORY, THORACIC AND MEDIASTINAL DISORDERS",,2013-07-17,2013-07-17,2013-07-17T00:00:00Z,,H,2013-07-26,2013-07-26,2013-07-26T23:59:59Z,,H,164,164,173,173,10,days,Y,,N,N,N,N,N,N,MODERATE,MODERATE,2,NONE,NONE,,E13,RECOVERED/RESOLVED,N,N,2013-07-30,2013-02-19T00:00:00Z,,
CDISCPILOT01,01-701-1383,1383,701,USA,AE,2013-02-04,2013-08-06,2013-02-04,2013-08-06,2013-08-06T12:00,,,,,,,,,,,,NA,2013-01-22,-13,72,YEARS,>64,F,WHITE,White,NOT HISPANIC OR LATINO,Y,Xanomeline High Dose,Xan_Hi,Xanomeline High Dose,Xan_Hi,Xanomeline High Dose,Xanomeline High Dose,2013-02-04,2013-02-04T00:00:00Z,H,2013-08-06,2013-08-06T23:59:59Z,H,COMPLETED,2013-08-06,,2013-02-04,2013-08-06,184,,,,,1,APPLICATION SITE PRURITUS,APPLICATION SITE PRURITUS,GENERAL DISORDERS AND ADMINISTRATION SITE CONDITIONS,,APPLICATION SITE ITCHING,,,HLT_0317,,HLGT_0338,,GENERAL DISORDERS AND ADMINISTRATION SITE CONDITIONS,,2013-02-07,2013-02-07,2013-02-07T00:00:00Z,,H,2013-02-07,2013-02-07,2013-02-07T23:59:59Z,,H,4,4,4,4,1,days,Y,,N,N,N,N,N,N,MILD,MILD,1,PROBABLE,PROBABLE,,E04,RECOVERED/RESOLVED,N,N,2013-02-19,2013-02-07T00:00:00Z,54,mg
CDISCPILOT01,01-701-1383,1383,701,USA,AE,2013-02-04,2013-08-06,2013-02-04,2013-08-06,2013-08-06T12:00,,,,,,,,,,,,NA,2013-01-22,-13,72,YEARS,>64,F,WHITE,White,NOT HISPANIC OR LATINO,Y,Xanomeline High Dose,Xan_Hi,Xanomeline High Dose,Xan_Hi,Xanomeline High Dose,Xanomeline High Dose,2013-02-04,2013-02-04T00:00:00Z,H,2013-08-06,2013-08-06T23:59:59Z,H,COMPLETED,2013-08-06,,2013-02-04,2013-08-06,184,,,,,2,APPLICATION SITE PAIN,APPLICATION SITE PAIN,GENERAL DISORDERS AND ADMINISTRATION SITE CONDITIONS,,APPLICATION SITE PAIN,,,HLT_0342,,HLGT_0085,,GENERAL DISORDERS AND ADMINISTRATION SITE CONDITIONS,,2013-02-07,2013-02-07,2013-02-07T00:00:00Z,,H,2013-02-07,2013-02-07,2013-02-07T23:59:59Z,,H,4,4,4,4,1,days,Y,,N,N,N,N,N,N,MILD,MILD,1,PROBABLE,PROBABLE,,E05,RECOVERED/RESOLVED,N,N,2013-02-19,2013-02-07T00:00:00Z,54,mg
CDISCPILOT01,01-701-1383,1383,701,USA,AE,2013-02-04,2013-08-06,2013-02-04,2013-08-06,2013-08-06T12:00,,,,,,,,,,,,NA,2013-01-22,-13,72,YEARS,>64,F,WHITE,White,NOT HISPANIC OR LATINO,Y,Xanomeline High Dose,Xan_Hi,Xanomeline High Dose,Xan_Hi,Xanomeline High Dose,Xanomeline High Dose,2013-02-04,2013-02-04T00:00:00Z,H,2013-08-06,2013-08-06T23:59:59Z,H,COMPLETED,2013-08-06,,2013-02-04,2013-08-06,184,,,,,3,APPLICATION SITE ERYTHEMA,APPLICATION SITE ERYTHEMA,GENERAL DISORDERS AND ADMINISTRATION SITE CONDITIONS,,APPLICATION SITE ERYTHEMA,,,HLT_0617,,HLGT_0152,,GENERAL DISORDERS AND ADMINISTRATION SITE CONDITIONS,,2013-03-23,2013-03-23,2013-03-23T00:00:00Z,,H,2013-03-26,2013-03-26,2013-03-26T23:59:59Z,,H,48,48,51,51,4,days,Y,,N,N,N,N,N,N,MILD,MILD,1,POSSIBLE,POSSIBLE,,E06,RECOVERED/RESOLVED,N,N,2013-04-02,2013-02-19T00:00:00Z,,
CDISCPILOT01,01-701-1383,1383,701,USA,AE,2013-02-04,2013-08-06,2013-02-04,2013-08-06,2013-08-06T12:00,,,,,,,,,,,,NA,2013-01-22,-13,72,YEARS,>64,F,WHITE,White,NOT HISPANIC OR LATINO,Y,Xanomeline High Dose,Xan_Hi,Xanomeline High Dose,Xan_Hi,Xanomeline High Dose,Xanomeline High Dose,2013-02-04,2013-02-04T00:00:00Z,H,2013-08-06,2013-08-06T23:59:59Z,H,COMPLETED,2013-08-06,,2013-02-04,2013-08-06,184,,,,,4,APPLICATION SITE PRURITUS,APPLICATION SITE PRURITUS,GENERAL DISORDERS AND ADMINISTRATION SITE CONDITIONS,,APPLICATION SITE ITCHING,,,HLT_0317,,HLGT_0338,,GENERAL DISORDERS AND ADMINISTRATION SITE CONDITIONS,,2013-03-23,2013-03-23,2013-03-23T00:00:00Z,,H,,,,,,48,48,,,,,Y,,N,N,N,N,N,N,MILD,MILD,1,POSSIBLE,POSSIBLE,,E07,NOT RECOVERED/NOT RESOLVED,N,N,2013-04-02,2013-02-19T00:00:00Z,,
CDISCPILOT01,01-701-1383,1383,701,USA,AE,2013-02-04,2013-08-06,2013-02-04,2013-08-06,2013-08-06T12:00,,,,,,,,,,,,NA,2013-01-22,-13,72,YEARS,>64,F,WHITE,White,NOT HISPANIC OR LATINO,Y,Xanomeline High Dose,Xan_Hi,Xanomeline High Dose,Xan_Hi,Xanomeline High Dose,Xanomeline High Dose,2013-02-04,2013-02-04T00:00:00Z,H,2013-08-06,2013-08-06T23:59:59Z,H,COMPLETED,2013-08-06,,2013-02-04,2013-08-06,184,,,,,5,APPLICATION SITE ERYTHEMA,APPLICATION SITE ERYTHEMA,GENERAL DISORDERS AND ADMINISTRATION SITE CONDITIONS,,APPLICATION SITE ERYTHEMA,,,HLT_0617,,HLGT_0152,,GENERAL DISORDERS AND ADMINISTRATION SITE CONDITIONS,,2013-04-12,2013-04-12,2013-04-12T00:00:00Z,,H,,,,,,68,68,,,,,Y,,N,N,N,N,N,N,MILD,MILD,1,POSSIBLE,POSSIBLE,,E08,NOT RECOVERED/NOT RESOLVED,N,N,2013-04-30,2013-02-19T00:00:00Z,,
CDISCPILOT01,01-701-1383,1383,701,USA,AE,2013-02-04,2013-08-06,2013-02-04,2013-08-06,2013-08-06T12:00,,,,,,,,,,,,NA,2013-01-22,-13,72,YEARS,>64,F,WHITE,White,NOT HISPANIC OR LATINO,Y,Xanomeline High Dose,Xan_Hi,Xanomeline High Dose,Xan_Hi,Xanomeline High Dose,Xanomeline High Dose,2013-02-04,2013-02-04T00:00:00Z,H,2013-08-06,2013-08-06T23:59:59Z,H,COMPLETED,2013-08-06,,2013-02-04,2013-08-06,184,,,,,6,APPLICATION SITE IRRITATION,APPLICATION SITE IRRITATION,GENERAL DISORDERS AND ADMINISTRATION SITE CONDITIONS,,APPLICATION SITE BURNING,,,HLT_0061,,HLGT_0346,,GENERAL DISORDERS AND ADMINISTRATION SITE CONDITIONS,,2013-04-12,2013-04-12,2013-04-12T00:00:00Z,,H,,,,,,68,68,,,,,Y,,N,N,N,N,N,N,MILD,MILD,1,POSSIBLE,POSSIBLE,,E09,NOT RECOVERED/NOT RESOLVED,N,N,2013-04-30,2013-02-19T00:00:00Z,,
CDISCPILOT01,01-701-1383,1383,701,USA,AE,2013-02-04,2013-08-06,2013-02-04,2013-08-06,2013-08-06T12:00,,,,,,,,,,,,NA,2013-01-22,-13,72,YEARS,>64,F,WHITE,White,NOT HISPANIC OR LATINO,Y,Xanomeline High Dose,Xan_Hi,Xanomeline High Dose,Xan_Hi,Xanomeline High Dose,Xanomeline High Dose,2013-02-04,2013-02-04T00:00:00Z,H,2013-08-06,2013-08-06T23:59:59Z,H,COMPLETED,2013-08-06,,2013-02-04,2013-08-06,184,,,,,9,APPLICATION SITE VESICLES,APPLICATION SITE VESICLES,GENERAL DISORDERS AND ADMINISTRATION SITE CONDITIONS,,APPLICATION SITE BLISTER,,,HLT_0180,,HLGT_0576,,GENERAL DISORDERS AND ADMINISTRATION SITE CONDITIONS,,2013-05-07,2013-05-07,2013-05-07T00:00:00Z,,H,2013-05-24,2013-05-24,2013-05-24T23:59:59Z,,H,93,93,110,110,18,days,Y,,N,N,N,N,N,N,MILD,MILD,1,POSSIBLE,POSSIBLE,,E10,RECOVERED/RESOLVED,N,N,2013-05-30,2013-02-19T00:00:00Z,,
CDISCPILOT01,01-701-1383,1383,701,USA,AE,2013-02-04,2013-08-06,2013-02-04,2013-08-06,2013-08-06T12:00,,,,,,,,,,,,NA,2013-01-22,-13,72,YEARS,>64,F,WHITE,White,NOT HISPANIC OR LATINO,Y,Xanomeline High Dose,Xan_Hi,Xanomeline High Dose,Xan_Hi,Xanomeline High Dose,Xanomeline High Dose,2013-02-04,2013-02-04T00:00:00Z,H,2013-08-06,2013-08-06T23:59:59Z,H,COMPLETED,2013-08-06,,2013-02-04,2013-08-06,184,,,,,10,CHEST DISCOMFORT,CHEST DISCOMFORT,GENERAL DISORDERS AND ADMINISTRATION SITE CONDITIONS,,CHEST PRESSURE,,,HLT_0593,,HLGT_0441,,GENERAL DISORDERS AND ADMINISTRATION SITE CONDITIONS,,2013-06-24,2013-06-24,2013-06-24T00:00:00Z,,H,2013-06-24,2013-06-24,2013-06-24T23:59:59Z,,H,141,141,141,141,1,days,Y,,N,N,N,N,N,N,MILD,MILD,1,NONE,NONE,,E11,RECOVERED/RESOLVED,N,N,2013-06-25,2013-02-19T00:00:00Z,,
CDISCPILOT01,01-701-1383,1383,701,USA,AE,2013-02-04,2013-08-06,2013-02-04,2013-08-06,2013-08-06T12:00,,,,,,,,,,,,NA,2013-01-22,-13,72,YEARS,>64,F,WHITE,White,NOT HISPANIC OR LATINO,Y,Xanomeline High Dose,Xan_Hi,Xanomeline High Dose,Xan_Hi,Xanomeline High Dose,Xanomeline High Dose,2013-02-04,2013-02-04T00:00:00Z,H,2013-08-06,2013-08-06T23:59:59Z,H,COMPLETED,2013-08-06,,2013-02-04,2013-08-06,184,,,,,11,HEADACHE,HEADACHE,NERVOUS SYSTEM DISORDERS,,FULLNESS HEAD,,,HLT_0064,,HLGT_0344,,NERVOUS SYSTEM DISORDERS,,2013-06-24,2013-06-24,2013-06-24T00:00:00Z,,H,2013-06-24,2013-06-24,2013-06-24T23:59:59Z,,H,141,141,141,141,1,days,Y,,N,N,N,N,N,N,MILD,MILD,1,NONE,NONE,,E12,RECOVERED/RESOLVED,N,N,2013-06-25,2013-02-19T00:00:00Z,,
CDISCPILOT01,01-701-1387,1387,701,USA,AE,2014-03-12,2014-03-25,2014-03-12,2014-03-25,2014-08-27,,2014-08-27,,,,,,,,,,NA,2014-02-23,-17,87,YEARS,>64,F,WHITE,White,NOT HISPANIC OR LATINO,Y,Placebo,Pbo,Placebo,Pbo,Placebo,Placebo,2014-03-12,2014-03-12T00:00:00Z,H,2014-03-25,2014-03-25T23:59:59Z,H,DISCONTINUED,2014-03-25,,2014-03-12,2014-03-25,14,,,,,1,DIARRHOEA,DIARRHOEA,GASTROINTESTINAL DISORDERS,,DIARRHEA,,,HLT_0148,,HLGT_0588,,GASTROINTESTINAL DISORDERS,,2014-03-18,2014-03-18,2014-03-18T00:00:00Z,,H,2014-03-18,2014-03-18,2014-03-18T23:59:59Z,,H,7,7,7,7,1,days,Y,Y,N,N,N,N,N,N,MILD,MILD,1,REMOTE,REMOTE,,E08,RECOVERED/RESOLVED,N,N,2014-03-25,2014-03-18T00:00:00Z,0,mg
CDISCPILOT01,01-701-1387,1387,701,USA,AE,2014-03-12,2014-03-25,2014-03-12,2014-03-25,2014-08-27,,2014-08-27,,,,,,,,,,NA,2014-02-23,-17,87,YEARS,>64,F,WHITE,White,NOT HISPANIC OR LATINO,Y,Placebo,Pbo,Placebo,Pbo,Placebo,Placebo,2014-03-12,2014-03-12T00:00:00Z,H,2014-03-25,2014-03-25T23:59:59Z,H,DISCONTINUED,2014-03-25,,2014-03-12,2014-03-25,14,,,,,2,HYPERHIDROSIS,HYPERHIDROSIS,SKIN AND SUBCUTANEOUS TISSUE DISORDERS,,SWEATING,,,HLT_0587,,HLGT_0005,,SKIN AND SUBCUTANEOUS TISSUE DISORDERS,,2014-03-18,2014-03-18,2014-03-18T00:00:00Z,,H,2014-03-18,2014-03-18,2014-03-18T23:59:59Z,,H,7,7,7,7,1,days,Y,,N,N,N,N,N,N,MILD,MILD,1,REMOTE,REMOTE,,E09,RECOVERED/RESOLVED,N,N,2014-03-25,2014-03-18T00:00:00Z,0,mg
CDISCPILOT01,01-701-1392,1392,701,USA,AE,2012-10-28,2013-04-28,2012-10-28,2013-04-28,2013-04-28T11:30,,,,,,,,,,,,NA,2012-10-17,-11,78,YEARS,>64,M,WHITE,White,NOT HISPANIC OR LATINO,Y,Placebo,Pbo,Placebo,Pbo,Placebo,Placebo,2012-10-28,2012-10-28T00:00:00Z,H,2013-04-28,2013-04-28T23:59:59Z,H,COMPLETED,2013-04-28,,2012-10-28,2013-04-28,183,,,,,1,UPPER RESPIRATORY TRACT INFECTION,UPPER RESPIRATORY TRACT INFECTION,INFECTIONS AND INFESTATIONS,,UPPER RESPIRATORY INFECTION,,,HLT_0520,,HLGT_0489,,INFECTIONS AND INFESTATIONS,,2013-03-16,2013-03-16,2013-03-16T00:00:00Z,,H,2013-03-21,2013-03-21,2013-03-21T23:59:59Z,,H,140,140,145,145,6,days,Y,Y,N,N,N,N,N,N,MILD,MILD,1,REMOTE,REMOTE,,E04,NOT RECOVERED/NOT RESOLVED,N,N,2013-03-17,2013-03-16T00:00:00Z,0,mg
CDISCPILOT01,01-701-1392,1392,701,USA,AE,2012-10-28,2013-04-28,2012-10-28,2013-04-28,2013-04-28T11:30,,,,,,,,,,,,NA,2012-10-17,-11,78,YEARS,>64,M,WHITE,White,NOT HISPANIC OR LATINO,Y,Placebo,Pbo,Placebo,Pbo,Placebo,Placebo,2012-10-28,2012-10-28T00:00:00Z,H,2013-04-28,2013-04-28T23:59:59Z,H,COMPLETED,2013-04-28,,2012-10-28,2013-04-28,183,,,,,2,UPPER RESPIRATORY TRACT INFECTION,UPPER RESPIRATORY TRACT INFECTION,INFECTIONS AND INFESTATIONS,,UPPER RESPIRATORY INFECTION,,,HLT_0520,,HLGT_0489,,INFECTIONS AND INFESTATIONS,,2013-03-16,2013-03-16,2013-03-16T00:00:00Z,,H,2013-03-21,2013-03-21,2013-03-21T23:59:59Z,,H,140,140,145,145,6,days,Y,,N,N,N,N,N,N,MILD,MILD,1,REMOTE,REMOTE,,E04,RECOVERED/RESOLVED,N,N,2013-04-15,2013-03-16T00:00:00Z,0,mg
CDISCPILOT01,01-701-1415,1415,701,USA,AE,2013-09-23,2014-03-24,2013-09-23,2014-03-24,2014-03-24T12:34,,,,,,,,,,,,NA,2013-09-15,-8,85,YEARS,>64,M,WHITE,White,NOT HISPANIC OR LATINO,Y,Placebo,Pbo,Placebo,Pbo,Placebo,Placebo,2013-09-23,2013-09-23T00:00:00Z,H,2014-03-24,2014-03-24T23:59:59Z,H,COMPLETED,2014-03-24,,2013-09-23,2014-03-24,183,,,,,1,UPPER RESPIRATORY TRACT INFECTION,UPPER RESPIRATORY TRACT INFECTION,INFECTIONS AND INFESTATIONS,,UPPER RESPIRATORY INFECTION,,,HLT_0520,,HLGT_0489,,INFECTIONS AND INFESTATIONS,,2013-10-21,2013-10-21,2013-10-21T00:00:00Z,,H,2013-11-04,2013-11-04,2013-11-04T23:59:59Z,,H,29,29,43,43,15,days,Y,Y,N,N,N,N,N,N,MILD,MILD,1,NONE,NONE,,E09,NOT RECOVERED/NOT RESOLVED,N,N,2013-10-22,2013-10-21T00:00:00Z,0,mg
CDISCPILOT01,01-701-1415,1415,701,USA,AE,2013-09-23,2014-03-24,2013-09-23,2014-03-24,2014-03-24T12:34,,,,,,,,,,,,NA,2013-09-15,-8,85,YEARS,>64,M,WHITE,White,NOT HISPANIC OR LATINO,Y,Placebo,Pbo,Placebo,Pbo,Placebo,Placebo,2013-09-23,2013-09-23T00:00:00Z,H,2014-03-24,2014-03-24T23:59:59Z,H,COMPLETED,2014-03-24,,2013-09-23,2014-03-24,183,,,,,2,UPPER RESPIRATORY TRACT INFECTION,UPPER RESPIRATORY TRACT INFECTION,INFECTIONS AND INFESTATIONS,,UPPER RESPIRATORY INFECTION,,,HLT_0520,,HLGT_0489,,INFECTIONS AND INFESTATIONS,,2013-10-21,2013-10-21,2013-10-21T00:00:00Z,,H,2013-11-04,2013-11-04,2013-11-04T23:59:59Z,,H,29,29,43,43,15,days,Y,,N,N,N,N,N,N,MILD,MILD,1,NONE,NONE,,E09,RECOVERED/RESOLVED,N,N,2013-11-21,2013-10-21T00:00:00Z,0,mg
CDISCPILOT01,01-701-1415,1415,701,USA,AE,2013-09-23,2014-03-24,2013-09-23,2014-03-24,2014-03-24T12:34,,,,,,,,,,,,NA,2013-09-15,-8,85,YEARS,>64,M,WHITE,White,NOT HISPANIC OR LATINO,Y,Placebo,Pbo,Placebo,Pbo,Placebo,Placebo,2013-09-23,2013-09-23T00:00:00Z,H,2014-03-24,2014-03-24T23:59:59Z,H,COMPLETED,2014-03-24,,2013-09-23,2014-03-24,183,,,,,3,MICTURITION URGENCY,MICTURITION URGENCY,RENAL AND URINARY DISORDERS,,URINARY URGENCY,,,HLT_0294,,HLGT_0483,,RENAL AND URINARY DISORDERS,,2013-12-02,2013-12-02,2013-12-02T00:00:00Z,,H,,,,,,71,71,,,,,Y,,N,N,N,N,N,N,MILD,MILD,1,NONE,NONE,,E10,NOT RECOVERED/NOT RESOLVED,N,N,2013-12-21,2013-12-02T00:00:00Z,0,mg
CDISCPILOT01,01-701-1415,1415,701,USA,AE,2013-09-23,2014-03-24,2013-09-23,2014-03-24,2014-03-24T12:34,,,,,,,,,,,,NA,2013-09-15,-8,85,YEARS,>64,M,WHITE,White,NOT HISPANIC OR LATINO,Y,Placebo,Pbo,Placebo,Pbo,Placebo,Placebo,2013-09-23,2013-09-23T00:00:00Z,H,2014-03-24,2014-03-24T23:59:59Z,H,COMPLETED,2014-03-24,,2013-09-23,2014-03-24,183,,,,,4,UPPER RESPIRATORY TRACT INFECTION,UPPER RESPIRATORY TRACT INFECTION,INFECTIONS AND INFESTATIONS,,UPPER RESPIRATORY INFECTION,,,HLT_0520,,HLGT_0489,,INFECTIONS AND INFESTATIONS,,2014-01-21,2014-01-21,2014-01-21T00:00:00Z,,H,2014-02-10,2014-02-10,2014-02-10T23:59:59Z,,H,121,121,141,141,21,days,Y,,N,N,N,N,N,N,MILD,MILD,1,REMOTE,REMOTE,,E11,NOT RECOVERED/NOT RESOLVED,N,N,2014-02-10,2014-01-21T00:00:00Z,0,mg
CDISCPILOT01,01-701-1415,1415,701,USA,AE,2013-09-23,2014-03-24,2013-09-23,2014-03-24,2014-03-24T12:34,,,,,,,,,,,,NA,2013-09-15,-8,85,YEARS,>64,M,WHITE,White,NOT HISPANIC OR LATINO,Y,Placebo,Pbo,Placebo,Pbo,Placebo,Placebo,2013-09-23,2013-09-23T00:00:00Z,H,2014-03-24,2014-03-24T23:59:59Z,H,COMPLETED,2014-03-24,,2013-09-23,2014-03-24,183,,,,,5,UPPER RESPIRATORY TRACT INFECTION,UPPER RESPIRATORY TRACT INFECTION,INFECTIONS AND INFESTATIONS,,UPPER RESPIRATORY INFECTION,,,HLT_0520,,HLGT_0489,,INFECTIONS AND INFESTATIONS,,2014-01-21,2014-01-21,2014-01-21T00:00:00Z,,H,2014-02-10,2014-02-10,2014-02-10T23:59:59Z,,H,121,121,141,141,21,days,Y,,N,N,N,N,N,N,MILD,MILD,1,REMOTE,REMOTE,,E11,RECOVERED/RESOLVED,N,N,2014-03-10,2014-01-21T00:00:00Z,0,mg
CDISCPILOT01,01-701-1415,1415,701,USA,AE,2013-09-23,2014-03-24,2013-09-23,2014-03-24,2014-03-24T12:34,,,,,,,,,,,,NA,2013-09-15,-8,85,YEARS,>64,M,WHITE,White,NOT HISPANIC OR LATINO,Y,Placebo,Pbo,Placebo,Pbo,Placebo,Placebo,2013-09-23,2013-09-23T00:00:00Z,H,2014-03-24,2014-03-24T23:59:59Z,H,COMPLETED,2014-03-24,,2013-09-23,2014-03-24,183,,,,,6,DIARRHOEA,DIARRHOEA,GASTROINTESTINAL DISORDERS,,DIARRHEA,,,HLT_0148,,HLGT_0588,,GASTROINTESTINAL DISORDERS,,2014-03-09,2014-03-09,2014-03-09T00:00:00Z,,H,2014-03-09,2014-03-09,2014-03-09T23:59:59Z,,H,168,168,168,168,1,days,Y,,N,N,N,N,N,N,MILD,MILD,1,NONE,NONE,,E12,RECOVERED/RESOLVED,N,N,2014-03-10,2014-03-09T00:00:00Z,0,mg
CDISCPILOT01,01-701-1442,1442,701,USA,AE,2013-10-26,2014-04-26,2013-10-26,2014-04-26,2014-04-26T10:00,,,,,,,,,,,,NA,2013-10-17,-9,57,YEARS,18-64,F,BLACK OR AFRICAN AMERICAN,Non-white,NOT HISPANIC OR LATINO,Y,Xanomeline Low Dose,Xan_Lo,Xanomeline Low Dose,Xan_Lo,Xanomeline Low Dose,Xanomeline Low Dose,2013-10-26,2013-10-26T00:00:00Z,H,2014-04-26,2014-04-26T23:59:59Z,H,COMPLETED,2014-04-26,,2013-10-26,2014-04-26,183,,,,,1,APPLICATION SITE PRURITUS,APPLICATION SITE PRURITUS,GENERAL DISORDERS AND ADMINISTRATION SITE CONDITIONS,,APPLICATION SITE ITCHING,,,HLT_0317,,HLGT_0338,,GENERAL DISORDERS AND ADMINISTRATION SITE CONDITIONS,,2014-01-10,2014-01-10,2014-01-10T00:00:00Z,,H,,,,,,77,77,,,,,Y,Y,N,N,N,N,N,N,MILD,MILD,1,PROBABLE,PROBABLE,,E03,NOT RECOVERED/NOT RESOLVED,N,N,2014-01-18,2014-01-10T00:00:00Z,54,mg
CDISCPILOT01,01-701-1444,1444,701,USA,AE,2013-01-05,2013-02-13,2013-01-05,2013-02-12,2013-06-20,,2013-06-20,,,,,,,,,,NA,2012-12-31,-5,63,YEARS,18-64,M,WHITE,White,HISPANIC OR LATINO,Y,Xanomeline High Dose,Xan_Hi,Xanomeline High Dose,Xan_Hi,Xanomeline High Dose,Xanomeline High Dose,2013-01-05,2013-01-05T00:00:00Z,H,2013-02-12,2013-02-12T23:59:59Z,H,DISCONTINUED,2013-02-13,,2013-01-05,2013-02-13,39,,,,,4,APPLICATION SITE ERYTHEMA,APPLICATION SITE ERYTHEMA,GENERAL DISORDERS AND ADMINISTRATION SITE CONDITIONS,,APPLICATION SITE ERYTHEMA,,,HLT_0617,,HLGT_0152,,GENERAL DISORDERS AND ADMINISTRATION SITE CONDITIONS,,2013-01-19,2013-01-19,2013-01-19T00:00:00Z,,H,,,,,,15,15,,,,,Y,Y,N,N,N,N,N,N,MODERATE,MODERATE,2,POSSIBLE,POSSIBLE,,E11,NOT RECOVERED/NOT RESOLVED,N,N,2013-02-13,2013-01-18T00:00:00Z,,
CDISCPILOT01,01-701-1444,1444,701,USA,AE,2013-01-05,2013-02-13,2013-01-05,2013-02-12,2013-06-20,,2013-06-20,,,,,,,,,,NA,2012-12-31,-5,63,YEARS,18-64,M,WHITE,White,HISPANIC OR LATINO,Y,Xanomeline High Dose,Xan_Hi,Xanomeline High Dose,Xan_Hi,Xanomeline High Dose,Xanomeline High Dose,2013-01-05,2013-01-05T00:00:00Z,H,2013-02-12,2013-02-12T23:59:59Z,H,DISCONTINUED,2013-02-13,,2013-01-05,2013-02-13,39,,,,,5,APPLICATION SITE PRURITUS,APPLICATION SITE PRURITUS,GENERAL DISORDERS AND ADMINISTRATION SITE CONDITIONS,,APPLICATION SITE ITCHING,,,HLT_0317,,HLGT_0338,,GENERAL DISORDERS AND ADMINISTRATION SITE CONDITIONS,,2013-01-19,2013-01-19,2013-01-19T00:00:00Z,,H,,,,,,15,15,,,,,Y,,N,N,N,N,N,N,MODERATE,MODERATE,2,PROBABLE,PROBABLE,,E12,NOT RECOVERED/NOT RESOLVED,N,N,2013-02-13,2013-01-18T00:00:00Z,,
CDISCPILOT01,01-701-1444,1444,701,USA,AE,2013-01-05,2013-02-13,2013-01-05,2013-02-12,2013-06-20,,2013-06-20,,,,,,,,,,NA,2012-12-31,-5,63,YEARS,18-64,M,WHITE,White,HISPANIC OR LATINO,Y,Xanomeline High Dose,Xan_Hi,Xanomeline High Dose,Xan_Hi,Xanomeline High Dose,Xanomeline High Dose,2013-01-05,2013-01-05T00:00:00Z,H,2013-02-12,2013-02-12T23:59:59Z,H,DISCONTINUED,2013-02-13,,2013-01-05,2013-02-13,39,,,,,6,APPLICATION SITE IRRITATION,APPLICATION SITE IRRITATION,GENERAL DISORDERS AND ADMINISTRATION SITE CONDITIONS,,APPLICATION SITE BURNING,,,HLT_0061,,HLGT_0346,,GENERAL DISORDERS AND ADMINISTRATION SITE CONDITIONS,,2013-02-04,2013-02-04,2013-02-04T00:00:00Z,,H,,,,,,31,31,,,,,Y,,N,N,N,N,N,N,MODERATE,MODERATE,2,PROBABLE,PROBABLE,,E15,NOT RECOVERED/NOT RESOLVED,N,N,2013-02-13,2013-01-18T00:00:00Z,,
CDISCPILOT01,01-701-1444,1444,701,USA,AE,2013-01-05,2013-02-13,2013-01-05,2013-02-12,2013-06-20,,2013-06-20,,,,,,,,,,NA,2012-12-31,-5,63,YEARS,18-64,M,WHITE,White,HISPANIC OR LATINO,Y,Xanomeline High Dose,Xan_Hi,Xanomeline High Dose,Xan_Hi,Xanomeline High Dose,Xanomeline High Dose,2013-01-05,2013-01-05T00:00:00Z,H,2013-02-12,2013-02-12T23:59:59Z,H,DISCONTINUED,2013-02-13,,2013-01-05,2013-02-13,39,,,,,7,APPLICATION SITE VESICLES,APPLICATION SITE VESICLES,GENERAL DISORDERS AND ADMINISTRATION SITE CONDITIONS,,APPLICATION SITE BLISTER,,,HLT_0180,,HLGT_0576,,GENERAL DISORDERS AND ADMINISTRATION SITE CONDITIONS,,2013-02-04,2013-02-04,2013-02-04T00:00:00Z,,H,,,,,,31,31,,,,,Y,,N,N,N,N,N,N,MODERATE,MODERATE,2,PROBABLE,PROBABLE,,E16,NOT RECOVERED/NOT RESOLVED,N,N,2013-02-13,2013-01-18T00:00:00Z,,
CDISCPILOT01,01-701-1444,1444,701,USA,AE,2013-01-05,2013-02-13,2013-01-05,2013-02-12,2013-06-20,,2013-06-20,,,,,,,,,,NA,2012-12-31,-5,63,YEARS,18-64,M,WHITE,White,HISPANIC OR LATINO,Y,Xanomeline High Dose,Xan_Hi,Xanomeline High Dose,Xan_Hi,Xanomeline High Dose,Xanomeline High Dose,2013-01-05,2013-01-05T00:00:00Z,H,2013-02-12,2013-02-12T23:59:59Z,H,DISCONTINUED,2013-02-13,,2013-01-05,2013-02-13,39,,,,,1,APPLICATION SITE ERYTHEMA,APPLICATION SITE ERYTHEMA,GENERAL DISORDERS AND ADMINISTRATION SITE CONDITIONS,,APPLICATION SITE ERYTHEMA,,,HLT_0617,,HLGT_0152,,GENERAL DISORDERS AND ADMINISTRATION SITE CONDITIONS,,2013-01-19,2013-01-19,2013-01-19T00:00:00Z,,H,,,,,,15,15,,,,,Y,,N,N,N,N,N,N,MILD,MILD,1,POSSIBLE,POSSIBLE,,E11,NOT RECOVERED/NOT RESOLVED,N,N,2013-01-31,2013-01-18T00:00:00Z,,
CDISCPILOT01,01-701-1444,1444,701,USA,AE,2013-01-05,2013-02-13,2013-01-05,2013-02-12,2013-06-20,,2013-06-20,,,,,,,,,,NA,2012-12-31,-5,63,YEARS,18-64,M,WHITE,White,HISPANIC OR LATINO,Y,Xanomeline High Dose,Xan_Hi,Xanomeline High Dose,Xan_Hi,Xanomeline High Dose,Xanomeline High Dose,2013-01-05,2013-01-05T00:00:00Z,H,2013-02-12,2013-02-12T23:59:59Z,H,DISCONTINUED,2013-02-13,,2013-01-05,2013-02-13,39,,,,,2,APPLICATION SITE PRURITUS,APPLICATION SITE PRURITUS,GENERAL DISORDERS AND ADMINISTRATION SITE CONDITIONS,,APPLICATION SITE ITCHING,,,HLT_0317,,HLGT_0338,,GENERAL DISORDERS AND ADMINISTRATION SITE CONDITIONS,,2013-01-19,2013-01-19,2013-01-19T00:00:00Z,,H,,,,,,15,15,,,,,Y,,N,N,N,N,N,N,MILD,MILD,1,PROBABLE,PROBABLE,,E12,NOT RECOVERED/NOT RESOLVED,N,N,2013-01-31,2013-01-18T00:00:00Z,,
CDISCPILOT01,01-701-1444,1444,701,USA,AE,2013-01-05,2013-02-13,2013-01-05,2013-02-12,2013-06-20,,2013-06-20,,,,,,,,,,NA,2012-12-31,-5,63,YEARS,18-64,M,WHITE,White,HISPANIC OR LATINO,Y,Xanomeline High Dose,Xan_Hi,Xanomeline High Dose,Xan_Hi,Xanomeline High Dose,Xanomeline High Dose,2013-01-05,2013-01-05T00:00:00Z,H,2013-02-12,2013-02-12T23:59:59Z,H,DISCONTINUED,2013-02-13,,2013-01-05,2013-02-13,39,,,,,3,SALIVARY HYPERSECRETION,SALIVARY HYPERSECRETION,GASTROINTESTINAL DISORDERS,,HYPERSALIVATION,,,HLT_0374,,HLGT_0488,,GASTROINTESTINAL DISORDERS,,2013-01-19,2013-01-19,2013-01-19T00:00:00Z,,H,,,,,,15,15,,,,,Y,,N,N,N,N,N,N,MILD,MILD,1,POSSIBLE,POSSIBLE,,E13,NOT RECOVERED/NOT RESOLVED,N,N,2013-01-31,2013-01-18T00:00:00Z,,
CDISCPILOT01,01-701-1444,1444,701,USA,AE,2013-01-05,2013-02-13,2013-01-05,2013-02-12,2013-06-20,,2013-06-20,,,,,,,,,,NA,2012-12-31,-5,63,YEARS,18-64,M,WHITE,White,HISPANIC OR LATINO,Y,Xanomeline High Dose,Xan_Hi,Xanomeline High Dose,Xan_Hi,Xanomeline High Dose,Xanomeline High Dose,2013-01-05,2013-01-05T00:00:00Z,H,2013-02-12,2013-02-12T23:59:59Z,H,DISCONTINUED,2013-02-13,,2013-01-05,2013-02-13,39,,,,,8,PARAESTHESIA,PARAESTHESIA,NERVOUS SYSTEM DISORDERS,,TINGLING,,,HLT_0481,,HLGT_0534,,NERVOUS SYSTEM DISORDERS,,2013-02-08,2013-02-08,2013-02-08T00:00:00Z,,H,2013-02-08,2013-02-08,2013-02-08T23:59:59Z,,H,35,35,35,35,1,days,Y,,N,N,N,N,N,N,MILD,MILD,1,NONE,NONE,,E14,RECOVERED/RESOLVED,N,N,2013-02-13,2013-01-18T00:00:00Z,,
CDISCPILOT01,01-702-1082,1082,702,USA,AE,2013-07-26,2013-11-17,2013-07-26,2013-10-13,2013-11-17T12:20,,,,,,,,,,,,NA,2013-07-03,-23,84,YEARS,>64,F,WHITE,White,NOT HISPANIC OR LATINO,Y,Xanomeline Low Dose,Xan_Lo,Xanomeline Low Dose,Xan_Lo,Xanomeline Low Dose,Xanomeline Low Dose,2013-07-26,2013-07-26T00:00:00Z,H,2013-10-13,2013-10-13T23:59:59Z,H,DISCONTINUED,2013-11-17,,2013-07-26,2013-11-17,80,,,,,10,SKIN IRRITATION,SKIN IRRITATION,SKIN AND SUBCUTANEOUS TISSUE DISORDERS,,SKIN IRRITATION,,,HLT_0583,,HLGT_0384,,SKIN AND SUBCUTANEOUS TISSUE DISORDERS,,2013-10-12,2013-10-12,2013-10-12T00:00:00Z,,H,2013-10-31,2013-10-31,2013-10-31T23:59:59Z,,H,79,79,98,98,20,days,Y,Y,N,N,N,N,N,N,MODERATE,MODERATE,2,PROBABLE,PROBABLE,,E08,RECOVERED/RESOLVED,N,N,2013-11-17,2013-10-12T00:00:00Z,54,mg
CDISCPILOT01,01-702-1082,1082,702,USA,AE,2013-07-26,2013-11-17,2013-07-26,2013-10-13,2013-11-17T12:20,,,,,,,,,,,,NA,2013-07-03,-23,84,YEARS,>64,F,WHITE,White,NOT HISPANIC OR LATINO,Y,Xanomeline Low Dose,Xan_Lo,Xanomeline Low Dose,Xan_Lo,Xanomeline Low Dose,Xanomeline Low Dose,2013-07-26,2013-07-26T00:00:00Z,H,2013-10-13,2013-10-13T23:59:59Z,H,DISCONTINUED,2013-11-17,,2013-07-26,2013-11-17,80,,,,,7,RECTAL HAEMORRHAGE,RECTAL HAEMORRHAGE,GASTROINTESTINAL DISORDERS,,RECTAL BLEEDING,,,HLT_0353,,HLGT_0755,,GASTROINTESTINAL DISORDERS,,2013-09-02,2013-09-02,2013-09-02T00:00:00Z,,H,2013-09-06,2013-09-06,2013-09-06T23:59:59Z,,H,39,39,43,43,5,days,Y,,N,N,N,N,N,N,MILD,MILD,1,NONE,NONE,,E06,NOT RECOVERED/NOT RESOLVED,N,N,2013-09-06,2013-09-02T00:00:00Z,54,mg
CDISCPILOT01,01-702-1082,1082,702,USA,AE,2013-07-26,2013-11-17,2013-07-26,2013-10-13,2013-11-17T12:20,,,,,,,,,,,,NA,2013-07-03,-23,84,YEARS,>64,F,WHITE,White,NOT HISPANIC OR LATINO,Y,Xanomeline Low Dose,Xan_Lo,Xanomeline Low Dose,Xan_Lo,Xanomeline Low Dose,Xanomeline Low Dose,2013-07-26,2013-07-26T00:00:00Z,H,2013-10-13,2013-10-13T23:59:59Z,H,DISCONTINUED,2013-11-17,,2013-07-26,2013-11-17,80,,,,,8,RECTAL HAEMORRHAGE,RECTAL HAEMORRHAGE,GASTROINTESTINAL DISORDERS,,RECTAL BLEEDING,,,HLT_0353,,HLGT_0755,,GASTROINTESTINAL DISORDERS,,2013-09-02,2013-09-02,2013-09-02T00:00:00Z,,H,2013-09-06,2013-09-06,2013-09-06T23:59:59Z,,H,39,39,43,43,5,days,Y,,N,N,N,N,N,N,MILD,MILD,1,NONE,NONE,,E06,RECOVERED/RESOLVED,N,N,2013-09-28,2013-09-02T00:00:00Z,54,mg
CDISCPILOT01,01-702-1082,1082,702,USA,AE,2013-07-26,2013-11-17,2013-07-26,2013-10-13,2013-11-17T12:20,,,,,,,,,,,,NA,2013-07-03,-23,84,YEARS,>64,F,WHITE,White,NOT HISPANIC OR LATINO,Y,Xanomeline Low Dose,Xan_Lo,Xanomeline Low Dose,Xan_Lo,Xanomeline Low Dose,Xanomeline Low Dose,2013-07-26,2013-07-26T00:00:00Z,H,2013-10-13,2013-10-13T23:59:59Z,H,DISCONTINUED,2013-11-17,,2013-07-26,2013-11-17,80,,,,,9,APPLICATION SITE IRRITATION,APPLICATION SITE IRRITATION,GENERAL DISORDERS AND ADMINISTRATION SITE CONDITIONS,,APPLICATION SITE IRRITATION,,,HLT_0061,,HLGT_0346,,GENERAL DISORDERS AND ADMINISTRATION SITE CONDITIONS,,2013-09-09,2013-09-09,2013-09-09T00:00:00Z,,H,2013-09-24,2013-09-24,2013-09-24T23:59:59Z,,H,46,46,61,61,16,days,Y,,N,N,N,N,N,N,MILD,MILD,1,PROBABLE,PROBABLE,,E07,RECOVERED/RESOLVED,N,N,2013-09-28,2013-09-09T00:00:00Z,54,mg
CDISCPILOT01,01-703-1042,1042,703,USA,AE,2013-03-02,2013-08-31,2013-03-02,2013-08-31,2013-08-31T11:00,,,,,,,,,,,,NA,2013-02-23,-7,64,YEARS,18-64,M,WHITE,White,NOT HISPANIC OR LATINO,Y,Placebo,Pbo,Placebo,Pbo,Placebo,Placebo,2013-03-02,2013-03-02T00:00:00Z,H,2013-08-31,2013-08-31T23:59:59Z,H,COMPLETED,2013-08-31,,2013-03-02,2013-08-31,183,,,,,1,DIARRHOEA,DIARRHOEA,GASTROINTESTINAL DISORDERS,,DIARRHEA,,,HLT_0148,,HLGT_0588,,GASTROINTESTINAL DISORDERS,,2013-03-04,2013-03-04,2013-03-04T00:00:00Z,,H,2013-03-05,2013-03-05,2013-03-05T23:59:59Z,,H,3,3,4,4,2,days,Y,Y,N,N,N,N,N,N,MILD,MILD,1,POSSIBLE,POSSIBLE,,E04,RECOVERED/RESOLVED,N,N,2013-03-14,2013-03-04T00:00:00Z,0,mg
CDISCPILOT01,01-703-1042,1042,703,USA,AE,2013-03-02,2013-08-31,2013-03-02,2013-08-31,2013-08-31T11:00,,,,,,,,,,,,NA,2013-02-23,-7,64,YEARS,18-64,M,WHITE,White,NOT HISPANIC OR LATINO,Y,Placebo,Pbo,Placebo,Pbo,Placebo,Placebo,2013-03-02,2013-03-02T00:00:00Z,H,2013-08-31,2013-08-31T23:59:59Z,H,COMPLETED,2013-08-31,,2013-03-02,2013-08-31,183,,,,,2,INSOMNIA,INSOMNIA,PSYCHIATRIC DISORDERS,,INSOMNIA,,,HLT_0297,,HLGT_0469,,PSYCHIATRIC DISORDERS,,2013-03-05,2013-03-05,2013-03-05T00:00:00Z,,H,2013-03-06,2013-03-06,2013-03-06T23:59:59Z,,H,4,4,5,5,2,days,Y,,N,N,N,N,N,N,MILD,MILD,1,REMOTE,REMOTE,,E05,RECOVERED/RESOLVED,N,N,2013-03-14,2013-03-05T00:00:00Z,0,mg
CDISCPILOT01,01-703-1076,1076,703,USA,AE,2013-10-25,2013-12-24,2013-10-25,2013-12-24,2014-01-21,,,,,,,,,,,,NA,2013-10-17,-8,69,YEARS,>64,M,WHITE,White,NOT HISPANIC OR LATINO,Y,Xanomeline High Dose,Xan_Hi,Xanomeline High Dose,Xan_Hi,Xanomeline High Dose,Xanomeline High Dose,2013-10-25,2013-10-25T00:00:00Z,H,2013-12-24,2013-12-24T23:59:59Z,H,DISCONTINUED,2013-12-24,,2013-10-25,2013-12-24,61,,,,,1,BIOPSY PROSTATE,BIOPSY PROSTATE,INVESTIGATIONS,,BIOPSY OF PROSTATE,,,HLT_0553,,HLGT_0725,,INVESTIGATIONS,,2013-11-16,2013-11-16,2013-11-16T00:00:00Z,,H,2013-11-16,2013-11-16,2013-11-16T23:59:59Z,,H,23,23,23,23,1,days,Y,Y,N,N,N,N,N,N,MODERATE,MODERATE,2,NONE,NONE,,E02,RECOVERED/RESOLVED,N,N,2013-11-20,2013-11-06T00:00:00Z,,
CDISCPILOT01,01-703-1076,1076,703,USA,AE,2013-10-25,2013-12-24,2013-10-25,2013-12-24,2014-01-21,,,,,,,,,,,,NA,2013-10-17,-8,69,YEARS,>64,M,WHITE,White,NOT HISPANIC OR LATINO,Y,Xanomeline High Dose,Xan_Hi,Xanomeline High Dose,Xan_Hi,Xanomeline High Dose,Xanomeline High Dose,2013-10-25,2013-10-25T00:00:00Z,H,2013-12-24,2013-12-24T23:59:59Z,H,DISCONTINUED,2013-12-24,,2013-10-25,2013-12-24,61,,,,,2,BENIGN PROSTATIC HYPERPLASIA,BENIGN PROSTATIC HYPERPLASIA,REPRODUCTIVE SYSTEM AND BREAST DISORDERS,,BENIGN PROSTATIC HYPERTROPHY,,,HLT_0215,,HLGT_0568,,REPRODUCTIVE SYSTEM AND BREAST DISORDERS,,2013-11-20,2013-11-20,2013-11-20T00:00:00Z,,H,,,,,,27,27,,,,,Y,,N,N,N,N,N,N,MODERATE,MODERATE,2,NONE,NONE,,E01,NOT RECOVERED/NOT RESOLVED,N,N,2013-11-20,2013-11-06T00:00:00Z,,
CDISCPILOT01,01-703-1076,1076,703,USA,AE,2013-10-25,2013-12-24,2013-10-25,2013-12-24,2014-01-21,,,,,,,,,,,,NA,2013-10-17,-8,69,YEARS,>64,M,WHITE,White,NOT HISPANIC OR LATINO,Y,Xanomeline High Dose,Xan_Hi,Xanomeline High Dose,Xan_Hi,Xanomeline High Dose,Xanomeline High Dose,2013-10-25,2013-10-25T00:00:00Z,H,2013-12-24,2013-12-24T23:59:59Z,H,DISCONTINUED,2013-12-24,,2013-10-25,2013-12-24,61,,,,,7,APPLICATION SITE PRURITUS,APPLICATION SITE PRURITUS,GENERAL DISORDERS AND ADMINISTRATION SITE CONDITIONS,,APPLICATION SITE ITCHING,,,HLT_0317,,HLGT_0338,,GENERAL DISORDERS AND ADMINISTRATION SITE CONDITIONS,,2013-11-23,2013-11-23,2013-11-23T00:00:00Z,,H,,,,,,30,30,,,,,Y,,N,N,N,N,N,N,MODERATE,MODERATE,2,PROBABLE,PROBABLE,,E08,NOT RECOVERED/NOT RESOLVED,N,N,2013-12-17,2013-11-06T00:00:00Z,,
CDISCPILOT01,01-703-1076,1076,703,USA,AE,2013-10-25,2013-12-24,2013-10-25,2013-12-24,2014-01-21,,,,,,,,,,,,NA,2013-10-17,-8,69,YEARS,>64,M,WHITE,White,NOT HISPANIC OR LATINO,Y,Xanomeline High Dose,Xan_Hi,Xanomeline High Dose,Xan_Hi,Xanomeline High Dose,Xanomeline High Dose,2013-10-25,2013-10-25T00:00:00Z,H,2013-12-24,2013-12-24T23:59:59Z,H,DISCONTINUED,2013-12-24,,2013-10-25,2013-12-24,61,,,,,4,APPLICATION SITE PRURITUS,APPLICATION SITE PRURITUS,GENERAL DISORDERS AND ADMINISTRATION SITE CONDITIONS,,APPLICATION SITE ITCHING,,,HLT_0317,,HLGT_0338,,GENERAL DISORDERS AND ADMINISTRATION SITE CONDITIONS,,2013-11-23,2013-11-23,2013-11-23T00:00:00Z,,H,,,,,,30,30,,,,,Y,,N,N,N,N,N,N,MILD,MILD,1,PROBABLE,PROBABLE,,E08,NOT RECOVERED/NOT RESOLVED,N,N,2013-12-04,2013-11-06T00:00:00Z,,
CDISCPILOT01,01-703-1076,1076,703,USA,AE,2013-10-25,2013-12-24,2013-10-25,2013-12-24,2014-01-21,,,,,,,,,,,,NA,2013-10-17,-8,69,YEARS,>64,M,WHITE,White,NOT HISPANIC OR LATINO,Y,Xanomeline High Dose,Xan_Hi,Xanomeline High Dose,Xan_Hi,Xanomeline High Dose,Xanomeline High Dose,2013-10-25,2013-10-25T00:00:00Z,H,2013-12-24,2013-12-24T23:59:59Z,H,DISCONTINUED,2013-12-24,,2013-10-25,2013-12-24,61,,,,,5,APPLICATION SITE DERMATITIS,APPLICATION SITE DERMATITIS,GENERAL DISORDERS AND ADMINISTRATION SITE CONDITIONS,,APPLICATION SITE RASH,,,HLT_0343,,HLGT_0241,,GENERAL DISORDERS AND ADMINISTRATION SITE CONDITIONS,,2013-11-23,2013-11-23,2013-11-23T00:00:00Z,,H,,,,,,30,30,,,,,Y,,N,N,N,N,N,N,MILD,MILD,1,PROBABLE,PROBABLE,,E09,NOT RECOVERED/NOT RESOLVED,N,N,2013-12-04,2013-11-06T00:00:00Z,,
CDISCPILOT01,01-703-1076,1076,703,USA,AE,2013-10-25,2013-12-24,2013-10-25,2013-12-24,2014-01-21,,,,,,,,,,,,NA,2013-10-17,-8,69,YEARS,>64,M,WHITE,White,NOT HISPANIC OR LATINO,Y,Xanomeline High Dose,Xan_Hi,Xanomeline High Dose,Xan_Hi,Xanomeline High Dose,Xanomeline High Dose,2013-10-25,2013-10-25T00:00:00Z,H,2013-12-24,2013-12-24T23:59:59Z,H,DISCONTINUED,2013-12-24,,2013-10-25,2013-12-24,61,,,,,6,HYPERHIDROSIS,HYPERHIDROSIS,SKIN AND SUBCUTANEOUS TISSUE DISORDERS,,SWEATING,,,HLT_0587,,HLGT_0005,,SKIN AND SUBCUTANEOUS TISSUE DISORDERS,,2013-11-25,2013-11-25,2013-11-25T00:00:00Z,,H,,,,,,32,32,,,,,Y,,N,N,N,N,N,N,MILD,MILD,1,POSSIBLE,POSSIBLE,,E07,NOT RECOVERED/NOT RESOLVED,N,N,2013-12-04,2013-11-06T00:00:00Z,,
CDISCPILOT01,01-703-1086,1086,703,USA,AE,2012-09-02,2012-12-24,2012-09-02,2012-12-04,2013-03-26,,2013-03-26,,,,,,,,,,NA,2012-08-22,-11,71,YEARS,>64,M,WHITE,White,NOT HISPANIC OR LATINO,Y,Xanomeline Low Dose,Xan_Lo,Xanomeline Low Dose,Xan_Lo,Xanomeline Low Dose,Xanomeline Low Dose,2012-09-02,2012-09-02T00:00:00Z,H,2012-12-04,2012-12-04T23:59:59Z,H,DISCONTINUED,2012-12-24,,2012-09-02,2013-01-02,94,,,,,3,APPLICATION SITE IRRITATION,APPLICATION SITE IRRITATION,GENERAL DISORDERS AND ADMINISTRATION SITE CONDITIONS,,APPLICATION SITE IRRITATION,,,HLT_0061,,HLGT_0346,,GENERAL DISORDERS AND ADMINISTRATION SITE CONDITIONS,,2012-09-13,2012-09-13,2012-09-13T00:00:00Z,,H,2013-01-02,2013-01-02,2013-01-02T23:59:59Z,,H,12,12,123,123,112,days,Y,Y,N,N,N,N,N,N,SEVERE,SEVERE,3,PROBABLE,PROBABLE,,E01,NOT RECOVERED/NOT RESOLVED,N,N,2012-10-13,2012-09-13T00:00:00Z,54,mg
CDISCPILOT01,01-703-1086,1086,703,USA,AE,2012-09-02,2012-12-24,2012-09-02,2012-12-04,2013-03-26,,2013-03-26,,,,,,,,,,NA,2012-08-22,-11,71,YEARS,>64,M,WHITE,White,NOT HISPANIC OR LATINO,Y,Xanomeline Low Dose,Xan_Lo,Xanomeline Low Dose,Xan_Lo,Xanomeline Low Dose,Xanomeline Low Dose,2012-09-02,2012-09-02T00:00:00Z,H,2012-12-04,2012-12-04T23:59:59Z,H,DISCONTINUED,2012-12-24,,2012-09-02,2013-01-02,94,,,,,2,APPLICATION SITE IRRITATION,APPLICATION SITE IRRITATION,GENERAL DISORDERS AND ADMINISTRATION SITE CONDITIONS,,APPLICATION SITE IRRITATION,,,HLT_0061,,HLGT_0346,,GENERAL DISORDERS AND ADMINISTRATION SITE CONDITIONS,,2012-09-13,2012-09-13,2012-09-13T00:00:00Z,,H,2013-01-02,2013-01-02,2013-01-02T23:59:59Z,,H,12,12,123,123,112,days,Y,,N,N,N,N,N,N,MODERATE,MODERATE,2,PROBABLE,PROBABLE,,E01,NOT RECOVERED/NOT RESOLVED,N,N,2012-09-30,2012-09-13T00:00:00Z,54,mg
CDISCPILOT01,01-703-1086,1086,703,USA,AE,2012-09-02,2012-12-24,2012-09-02,2012-12-04,2013-03-26,,2013-03-26,,,,,,,,,,NA,2012-08-22,-11,71,YEARS,>64,M,WHITE,White,NOT HISPANIC OR LATINO,Y,Xanomeline Low Dose,Xan_Lo,Xanomeline Low Dose,Xan_Lo,Xanomeline Low Dose,Xanomeline Low Dose,2012-09-02,2012-09-02T00:00:00Z,H,2012-12-04,2012-12-04T23:59:59Z,H,DISCONTINUED,2012-12-24,,2012-09-02,2013-01-02,94,,,,,1,APPLICATION SITE IRRITATION,APPLICATION SITE IRRITATION,GENERAL DISORDERS AND ADMINISTRATION SITE CONDITIONS,,APPLICATION SITE IRRITATION,,,HLT_0061,,HLGT_0346,,GENERAL DISORDERS AND ADMINISTRATION SITE CONDITIONS,,2012-09-13,2012-09-13,2012-09-13T00:00:00Z,,H,2013-01-02,2013-01-02,2013-01-02T23:59:59Z,,H,12,12,123,123,112,days,Y,,N,N,N,N,N,N,MILD,MILD,1,PROBABLE,PROBABLE,,E01,NOT RECOVERED/NOT RESOLVED,N,N,2012-09-16,2012-09-13T00:00:00Z,54,mg
CDISCPILOT01,01-703-1086,1086,703,USA,AE,2012-09-02,2012-12-24,2012-09-02,2012-12-04,2013-03-26,,2013-03-26,,,,,,,,,,NA,2012-08-22,-11,71,YEARS,>64,M,WHITE,White,NOT HISPANIC OR LATINO,Y,Xanomeline Low Dose,Xan_Lo,Xanomeline Low Dose,Xan_Lo,Xanomeline Low Dose,Xanomeline Low Dose,2012-09-02,2012-09-02T00:00:00Z,H,2012-12-04,2012-12-04T23:59:59Z,H,DISCONTINUED,2012-12-24,,2012-09-02,2013-01-02,94,,,,,6,APPLICATION SITE IRRITATION,APPLICATION SITE IRRITATION,GENERAL DISORDERS AND ADMINISTRATION SITE CONDITIONS,,APPLICATION SITE IRRITATION,,,HLT_0061,,HLGT_0346,,GENERAL DISORDERS AND ADMINISTRATION SITE CONDITIONS,,2012-09-13,2012-09-13,2012-09-13T00:00:00Z,,H,2013-01-02,2013-01-02,2013-01-02T23:59:59Z,,H,12,12,123,123,112,days,Y,,N,N,N,N,N,N,MILD,MILD,1,PROBABLE,PROBABLE,,E01,RECOVERED/RESOLVED,N,N,2013-03-26,2012-09-13T00:00:00Z,54,mg
CDISCPILOT01,01-703-1086,1086,703,USA,AE,2012-09-02,2012-12-24,2012-09-02,2012-12-04,2013-03-26,,2013-03-26,,,,,,,,,,NA,2012-08-22,-11,71,YEARS,>64,M,WHITE,White,NOT HISPANIC OR LATINO,Y,Xanomeline Low Dose,Xan_Lo,Xanomeline Low Dose,Xan_Lo,Xanomeline Low Dose,Xanomeline Low Dose,2012-09-02,2012-09-02T00:00:00Z,H,2012-12-04,2012-12-04T23:59:59Z,H,DISCONTINUED,2012-12-24,,2012-09-02,2013-01-02,94,,,,,4,CHILLS,CHILLS,GENERAL DISORDERS AND ADMINISTRATION SITE CONDITIONS,,CHILLS,,,HLT_0586,,HLGT_0161,,GENERAL DISORDERS AND ADMINISTRATION SITE CONDITIONS,,2012-10-09,2012-10-09,2012-10-09T00:00:00Z,,H,2012-10-15,2012-10-15,2012-10-15T23:59:59Z,,H,38,38,44,44,7,days,Y,,N,N,N,N,N,N,MILD,MILD,1,POSSIBLE,POSSIBLE,,E02,NOT RECOVERED/NOT RESOLVED,N,N,2012-10-13,2012-10-09T00:00:00Z,54,mg
CDISCPILOT01,01-703-1086,1086,703,USA,AE,2012-09-02,2012-12-24,2012-09-02,2012-12-04,2013-03-26,,2013-03-26,,,,,,,,,,NA,2012-08-22,-11,71,YEARS,>64,M,WHITE,White,NOT HISPANIC OR LATINO,Y,Xanomeline Low Dose,Xan_Lo,Xanomeline Low Dose,Xan_Lo,Xanomeline Low Dose,Xanomeline Low Dose,2012-09-02,2012-09-02T00:00:00Z,H,2012-12-04,2012-12-04T23:59:59Z,H,DISCONTINUED,2012-12-24,,2012-09-02,2013-01-02,94,,,,,5,CHILLS,CHILLS,GENERAL DISORDERS AND ADMINISTRATION SITE CONDITIONS,,CHILLS,,,HLT_0586,,HLGT_0161,,GENERAL DISORDERS AND ADMINISTRATION SITE CONDITIONS,,2012-10-09,2012-10-09,2012-10-09T00:00:00Z,,H,2012-10-15,2012-10-15,2012-10-15T23:59:59Z,,H,38,38,44,44,7,days,Y,,N,N,N,N,N,N,MILD,MILD,1,POSSIBLE,POSSIBLE,,E02,RECOVERED/RESOLVED,N,N,2012-10-27,2012-10-09T00:00:00Z,54,mg
CDISCPILOT01,01-703-1100,1100,703,USA,AE,2013-03-13,2013-09-14,2013-03-13,2013-09-14,2013-09-14T15:00,,,,,,,,,,,,NA,2013-02-28,-13,84,YEARS,>64,F,WHITE,White,NOT HISPANIC OR LATINO,Y,Placebo,Pbo,Placebo,Pbo,Placebo,Placebo,2013-03-13,2013-03-13T00:00:00Z,H,2013-09-14,2013-09-14T23:59:59Z,H,COMPLETED,2013-09-14,,2013-03-13,2013-09-14,186,,,,,1,APPLICATION SITE IRRITATION,APPLICATION SITE IRRITATION,GENERAL DISORDERS AND ADMINISTRATION SITE CONDITIONS,,APPLICATION SITE IRRITATION,,,HLT_0061,,HLGT_0346,,GENERAL DISORDERS AND ADMINISTRATION SITE CONDITIONS,,2013-04-05,2013-04-05,2013-04-05T00:00:00Z,,H,2013-04-16,2013-04-16,2013-04-16T23:59:59Z,,H,24,24,35,35,12,days,Y,Y,N,N,N,N,N,N,MODERATE,MODERATE,2,PROBABLE,PROBABLE,,E04,NOT RECOVERED/NOT RESOLVED,N,N,2013-04-12,2013-04-05T00:00:00Z,0,mg
CDISCPILOT01,01-703-1100,1100,703,USA,AE,2013-03-13,2013-09-14,2013-03-13,2013-09-14,2013-09-14T15:00,,,,,,,,,,,,NA,2013-02-28,-13,84,YEARS,>64,F,WHITE,White,NOT HISPANIC OR LATINO,Y,Placebo,Pbo,Placebo,Pbo,Placebo,Placebo,2013-03-13,2013-03-13T00:00:00Z,H,2013-09-14,2013-09-14T23:59:59Z,H,COMPLETED,2013-09-14,,2013-03-13,2013-09-14,186,,,,,4,CATARACT OPERATION,CATARACT OPERATION,SURGICAL AND MEDICAL PROCEDURES,,CATARACT EXTRACTION,,,HLT_0432,,HLGT_0058,,SURGICAL AND MEDICAL PROCEDURES,,2013-04-25,2013-04-25,2013-04-25T00:00:00Z,,H,2013-04-25,2013-04-25,2013-04-25T23:59:59Z,,H,44,44,44,44,1,days,Y,,N,N,N,N,N,N,MODERATE,MODERATE,2,NONE,NONE,,E06,RECOVERED/RESOLVED,N,N,2013-05-08,2013-04-25T00:00:00Z,0,mg
CDISCPILOT01,01-703-1100,1100,703,USA,AE,2013-03-13,2013-09-14,2013-03-13,2013-09-14,2013-09-14T15:00,,,,,,,,,,,,NA,2013-02-28,-13,84,YEARS,>64,F,WHITE,White,NOT HISPANIC OR LATINO,Y,Placebo,Pbo,Placebo,Pbo,Placebo,Placebo,2013-03-13,2013-03-13T00:00:00Z,H,2013-09-14,2013-09-14T23:59:59Z,H,COMPLETED,2013-09-14,,2013-03-13,2013-09-14,186,,,,,5,UPPER RESPIRATORY TRACT INFECTION,UPPER RESPIRATORY TRACT INFECTION,INFECTIONS AND INFESTATIONS,,UPPER RESPIRATORY INFECTION,,,HLT_0520,,HLGT_0489,,INFECTIONS AND INFESTATIONS,,2013-05-27,2013-05-27,2013-05-27T00:00:00Z,,H,2013-06-03,2013-06-03,2013-06-03T23:59:59Z,,H,76,76,83,83,8,days,Y,,N,N,N,N,N,N,MODERATE,MODERATE,2,REMOTE,REMOTE,,E08,RECOVERED/RESOLVED,N,N,2013-06-05,2013-05-27T00:00:00Z,0,mg
CDISCPILOT01,01-703-1100,1100,703,USA,AE,2013-03-13,2013-09-14,2013-03-13,2013-09-14,2013-09-14T15:00,,,,,,,,,,,,NA,2013-02-28,-13,84,YEARS,>64,F,WHITE,White,NOT HISPANIC OR LATINO,Y,Placebo,Pbo,Placebo,Pbo,Placebo,Placebo,2013-03-13,2013-03-13T00:00:00Z,H,2013-09-14,2013-09-14T23:59:59Z,H,COMPLETED,2013-09-14,,2013-03-13,2013-09-14,186,,,,,2,APPLICATION SITE IRRITATION,APPLICATION SITE IRRITATION,GENERAL DISORDERS AND ADMINISTRATION SITE CONDITIONS,,APPLICATION SITE IRRITATION,,,HLT_0061,,HLGT_0346,,GENERAL DISORDERS AND ADMINISTRATION SITE CONDITIONS,,2013-04-05,2013-04-05,2013-04-05T00:00:00Z,,H,2013-04-16,2013-04-16,2013-04-16T23:59:59Z,,H,24,24,35,35,12,days,Y,,N,N,N,N,N,N,MILD,MILD,1,PROBABLE,PROBABLE,,E04,NOT RECOVERED/NOT RESOLVED,N,N,2013-04-14,2013-04-05T00:00:00Z,0,mg
CDISCPILOT01,01-703-1100,1100,703,USA,AE,2013-03-13,2013-09-14,2013-03-13,2013-09-14,2013-09-14T15:00,,,,,,,,,,,,NA,2013-02-28,-13,84,YEARS,>64,F,WHITE,White,NOT HISPANIC OR LATINO,Y,Placebo,Pbo,Placebo,Pbo,Placebo,Placebo,2013-03-13,2013-03-13T00:00:00Z,H,2013-09-14,2013-09-14T23:59:59Z,H,COMPLETED,2013-09-14,,2013-03-13,2013-09-14,186,,,,,3,APPLICATION SITE IRRITATION,APPLICATION SITE IRRITATION,GENERAL DISORDERS AND ADMINISTRATION SITE CONDITIONS,,APPLICATION SITE IRRITATION,,,HLT_0061,,HLGT_0346,,GENERAL DISORDERS AND ADMINISTRATION SITE CONDITIONS,,2013-04-05,2013-04-05,2013-04-05T00:00:00Z,,H,2013-04-16,2013-04-16,2013-04-16T23:59:59Z,,H,24,24,35,35,12,days,Y,,N,N,N,N,N,N,MILD,MILD,1,PROBABLE,PROBABLE,,E04,RECOVERED/RESOLVED,N,N,2013-04-24,2013-04-05T00:00:00Z,0,mg
CDISCPILOT01,01-703-1100,1100,703,USA,AE,2013-03-13,2013-09-14,2013-03-13,2013-09-14,2013-09-14T15:00,,,,,,,,,,,,NA,2013-02-28,-13,84,YEARS,>64,F,WHITE,White,NOT HISPANIC OR LATINO,Y,Placebo,Pbo,Placebo,Pbo,Placebo,Placebo,2013-03-13,2013-03-13T00:00:00Z,H,2013-09-14,2013-09-14T23:59:59Z,H,COMPLETED,2013-09-14,,2013-03-13,2013-09-14,186,,,,,7,OEDEMA PERIPHERAL,OEDEMA PERIPHERAL,GENERAL DISORDERS AND ADMINISTRATION SITE CONDITIONS,,LEG EDEMA,,,HLT_0661,,HLGT_0137,,GENERAL DISORDERS AND ADMINISTRATION SITE CONDITIONS,,2013-07-17,2013-07-17,2013-07-17T00:00:00Z,,H,2013-09-14,2013-09-14,2013-09-14T23:59:59Z,,H,127,127,186,186,60,days,Y,,N,N,N,N,N,N,MILD,MILD,1,REMOTE,REMOTE,,E09,NOT RECOVERED/NOT RESOLVED,N,N,2013-07-31,2013-07-17T00:00:00Z,0,mg
CDISCPILOT01,01-703-1100,1100,703,USA,AE,2013-03-13,2013-09-14,2013-03-13,2013-09-14,2013-09-14T15:00,,,,,,,,,,,,NA,2013-02-28,-13,84,YEARS,>64,F,WHITE,White,NOT HISPANIC OR LATINO,Y,Placebo,Pbo,Placebo,Pbo,Placebo,Placebo,2013-03-13,2013-03-13T00:00:00Z,H,2013-09-14,2013-09-14T23:59:59Z,H,COMPLETED,2013-09-14,,2013-03-13,2013-09-14,186,,,,,9,OEDEMA PERIPHERAL,OEDEMA PERIPHERAL,GENERAL DISORDERS AND ADMINISTRATION SITE CONDITIONS,,LEG EDEMA,,,HLT_0661,,HLGT_0137,,GENERAL DISORDERS AND ADMINISTRATION SITE CONDITIONS,,2013-07-17,2013-07-17,2013-07-17T00:00:00Z,,H,2013-09-14,2013-09-14,2013-09-14T23:59:59Z,,H,127,127,186,186,60,days,Y,,N,N,N,N,N,N,MILD,MILD,1,REMOTE,REMOTE,,E09,RECOVERED/RESOLVED,N,N,2013-09-14,2013-07-17T00:00:00Z,0,mg
CDISCPILOT01,01-703-1119,1119,703,USA,AE,2013-02-20,2013-06-13,2013-02-20,2013-06-13,2013-08-24,,2013-08-24,,,,,,,,,,NA,2013-02-02,-18,81,YEARS,>64,F,WHITE,White,NOT HISPANIC OR LATINO,Y,Xanomeline Low Dose,Xan_Lo,Xanomeline Low Dose,Xan_Lo,Xanomeline Low Dose,Xanomeline Low Dose,2013-02-20,2013-02-20T00:00:00Z,H,2013-06-13,2013-06-13T23:59:59Z,H,DISCONTINUED,2013-06-13,,2013-02-20,2013-06-13,114,,,,,2,APPLICATION SITE IRRITATION,APPLICATION SITE IRRITATION,GENERAL DISORDERS AND ADMINISTRATION SITE CONDITIONS,,APPLICATION SITE IRRITATION,,,HLT_0061,,HLGT_0346,,GENERAL DISORDERS AND ADMINISTRATION SITE CONDITIONS,,2013-03-16,2013-03-16,2013-03-16T00:00:00Z,,H,,,,,,25,25,,,,,Y,Y,N,N,N,N,N,N,SEVERE,SEVERE,3,PROBABLE,PROBABLE,,E04,NOT RECOVERED/NOT RESOLVED,N,N,2013-05-17,2013-03-16T00:00:00Z,54,mg
CDISCPILOT01,01-703-1119,1119,703,USA,AE,2013-02-20,2013-06-13,2013-02-20,2013-06-13,2013-08-24,,2013-08-24,,,,,,,,,,NA,2013-02-02,-18,81,YEARS,>64,F,WHITE,White,NOT HISPANIC OR LATINO,Y,Xanomeline Low Dose,Xan_Lo,Xanomeline Low Dose,Xan_Lo,Xanomeline Low Dose,Xanomeline Low Dose,2013-02-20,2013-02-20T00:00:00Z,H,2013-06-13,2013-06-13T23:59:59Z,H,DISCONTINUED,2013-06-13,,2013-02-20,2013-06-13,114,,,,,4,PRURITUS,PRURITUS,SKIN AND SUBCUTANEOUS TISSUE DISORDERS,,ITCHING,,,HLT_0778,,HLGT_0695,,SKIN AND SUBCUTANEOUS TISSUE DISORDERS,,2013-05-04,2013-05-04,2013-05-04T00:00:00Z,,H,,,,,,74,74,,,,,Y,,N,N,N,N,N,N,SEVERE,SEVERE,3,PROBABLE,PROBABLE,,E05,NOT RECOVERED/NOT RESOLVED,N,N,2013-06-13,2013-05-04T00:00:00Z,54,mg
CDISCPILOT01,01-703-1119,1119,703,USA,AE,2013-02-20,2013-06-13,2013-02-20,2013-06-13,2013-08-24,,2013-08-24,,,,,,,,,,NA,2013-02-02,-18,81,YEARS,>64,F,WHITE,White,NOT HISPANIC OR LATINO,Y,Xanomeline Low Dose,Xan_Lo,Xanomeline Low Dose,Xan_Lo,Xanomeline Low Dose,Xanomeline Low Dose,2013-02-20,2013-02-20T00:00:00Z,H,2013-06-13,2013-06-13T23:59:59Z,H,DISCONTINUED,2013-06-13,,2013-02-20,2013-06-13,114,,,,,1,APPLICATION SITE IRRITATION,APPLICATION SITE IRRITATION,GENERAL DISORDERS AND ADMINISTRATION SITE CONDITIONS,,APPLICATION SITE IRRITATION,,,HLT_0061,,HLGT_0346,,GENERAL DISORDERS AND ADMINISTRATION SITE CONDITIONS,,2013-03-16,2013-03-16,2013-03-16T00:00:00Z,,H,,,,,,25,25,,,,,Y,,N,N,N,N,N,N,MODERATE,MODERATE,2,PROBABLE,PROBABLE,,E04,NOT RECOVERED/NOT RESOLVED,N,N,2013-03-21,2013-03-16T00:00:00Z,54,mg
CDISCPILOT01,01-703-1119,1119,703,USA,AE,2013-02-20,2013-06-13,2013-02-20,2013-06-13,2013-08-24,,2013-08-24,,,,,,,,,,NA,2013-02-02,-18,81,YEARS,>64,F,WHITE,White,NOT HISPANIC OR LATINO,Y,Xanomeline Low Dose,Xan_Lo,Xanomeline Low Dose,Xan_Lo,Xanomeline Low Dose,Xanomeline Low Dose,2013-02-20,2013-02-20T00:00:00Z,H,2013-06-13,2013-06-13T23:59:59Z,H,DISCONTINUED,2013-06-13,,2013-02-20,2013-06-13,114,,,,,3,PRURITUS,PRURITUS,SKIN AND SUBCUTANEOUS TISSUE DISORDERS,,ITCHING,,,HLT_0778,,HLGT_0695,,SKIN AND SUBCUTANEOUS TISSUE DISORDERS,,2013-05-04,2013-05-04,2013-05-04T00:00:00Z,,H,,,,,,74,74,,,,,Y,,N,N,N,N,N,N,MODERATE,MODERATE,2,PROBABLE,PROBABLE,,E05,NOT RECOVERED/NOT RESOLVED,N,N,2013-05-17,2013-05-04T00:00:00Z,54,mg
CDISCPILOT01,01-703-1182,1182,703,USA,AE,2013-10-17,2013-12-12,2013-10-17,2013-12-11,2014-01-14,,,,,,,,,,,,NA,2013-10-08,-9,84,YEARS,>64,M,WHITE,White,NOT HISPANIC OR LATINO,Y,Xanomeline Low Dose,Xan_Lo,Xanomeline Low Dose,Xan_Lo,Xanomeline Low Dose,Xanomeline Low Dose,2013-10-17,2013-10-17T00:00:00Z,H,2013-12-11,2013-12-11T23:59:59Z,H,DISCONTINUED,2013-12-12,,2013-10-17,2013-12-12,56,,,,,2,APPLICATION SITE ERYTHEMA,APPLICATION SITE ERYTHEMA,GENERAL DISORDERS AND ADMINISTRATION SITE CONDITIONS,,APPLICATION SITE REDNESS,,,HLT_0617,,HLGT_0152,,GENERAL DISORDERS AND ADMINISTRATION SITE CONDITIONS,,2013-10-31,2013-10-31,2013-10-31T00:00:00Z,,H,,,,,,15,15,,,,,Y,Y,N,N,N,N,N,N,MODERATE,MODERATE,2,POSSIBLE,POSSIBLE,,E05,NOT RECOVERED/NOT RESOLVED,N,N,2013-11-28,2013-10-31T00:00:00Z,54,mg
CDISCPILOT01,01-703-1182,1182,703,USA,AE,2013-10-17,2013-12-12,2013-10-17,2013-12-11,2014-01-14,,,,,,,,,,,,NA,2013-10-08,-9,84,YEARS,>64,M,WHITE,White,NOT HISPANIC OR LATINO,Y,Xanomeline Low Dose,Xan_Lo,Xanomeline Low Dose,Xan_Lo,Xanomeline Low Dose,Xanomeline Low Dose,2013-10-17,2013-10-17T00:00:00Z,H,2013-12-11,2013-12-11T23:59:59Z,H,DISCONTINUED,2013-12-12,,2013-10-17,2013-12-12,56,,,,,4,SOMNOLENCE,SOMNOLENCE,NERVOUS SYSTEM DISORDERS,,DROWSINESS,,,HLT_0160,,HLGT_0254,,NERVOUS SYSTEM DISORDERS,,2013-11-22,2013-11-22,2013-11-22T00:00:00Z,,H,,,,,,37,37,,,,,Y,,N,N,N,N,N,N,MODERATE,MODERATE,2,REMOTE,REMOTE,,E07,NOT RECOVERED/NOT RESOLVED,N,N,2013-12-12,2013-11-22T00:00:00Z,54,mg
CDISCPILOT01,01-703-1182,1182,703,USA,AE,2013-10-17,2013-12-12,2013-10-17,2013-12-11,2014-01-14,,,,,,,,,,,,NA,2013-10-08,-9,84,YEARS,>64,M,WHITE,White,NOT HISPANIC OR LATINO,Y,Xanomeline Low Dose,Xan_Lo,Xanomeline Low Dose,Xan_Lo,Xanomeline Low Dose,Xanomeline Low Dose,2013-10-17,2013-10-17T00:00:00Z,H,2013-12-11,2013-12-11T23:59:59Z,H,DISCONTINUED,2013-12-12,,2013-10-17,2013-12-12,56,,,,,1,APPLICATION SITE ERYTHEMA,APPLICATION SITE ERYTHEMA,GENERAL DISORDERS AND ADMINISTRATION SITE CONDITIONS,,APPLICATION SITE REDNESS,,,HLT_0617,,HLGT_0152,,GENERAL DISORDERS AND ADMINISTRATION SITE CONDITIONS,,2013-10-31,2013-10-31,2013-10-31T00:00:00Z,,H,,,,,,15,15,,,,,Y,,N,N,N,N,N,N,MILD,MILD,1,POSSIBLE,POSSIBLE,,E05,NOT RECOVERED/NOT RESOLVED,N,N,2013-10-31,2013-10-31T00:00:00Z,54,mg
CDISCPILOT01,01-703-1182,1182,703,USA,AE,2013-10-17,2013-12-12,2013-10-17,2013-12-11,2014-01-14,,,,,,,,,,,,NA,2013-10-08,-9,84,YEARS,>64,M,WHITE,White,NOT HISPANIC OR LATINO,Y,Xanomeline Low Dose,Xan_Lo,Xanomeline Low Dose,Xan_Lo,Xanomeline Low Dose,Xanomeline Low Dose,2013-10-17,2013-10-17T00:00:00Z,H,2013-12-11,2013-12-11T23:59:59Z,H,DISCONTINUED,2013-12-12,,2013-10-17,2013-12-12,56,,,,,3,SOMNOLENCE,SOMNOLENCE,NERVOUS SYSTEM DISORDERS,,DROWSINESS,,,HLT_0160,,HLGT_0254,,NERVOUS SYSTEM DISORDERS,,2013-11-22,2013-11-22,2013-11-22T00:00:00Z,,H,,,,,,37,37,,,,,Y,,N,N,N,N,N,N,MILD,MILD,1,REMOTE,REMOTE,,E07,NOT RECOVERED/NOT RESOLVED,N,N,2013-11-28,2013-11-22T00:00:00Z,54,mg
CDISCPILOT01,01-703-1210,1210,703,USA,AE,2013-03-16,2013-09-06,2013-03-16,2013-09-06,2013-09-06T13:30,,,,,,,,,,,,NA,2013-03-08,-8,72,YEARS,>64,F,WHITE,White,NOT HISPANIC OR LATINO,Y,Placebo,Pbo,Placebo,Pbo,Placebo,Placebo,2013-03-16,2013-03-16T00:00:00Z,H,2013-09-06,2013-09-06T23:59:59Z,H,COMPLETED,2013-09-06,,2013-03-16,2013-09-06,175,,,,,3,DECREASED APPETITE,DECREASED APPETITE,METABOLISM AND NUTRITION DISORDERS,,DECREASED APPETITE,,,HLT_0574,,HLGT_0231,,METABOLISM AND NUTRITION DISORDERS,,2013-05-04,2013-05-04,2013-05-04T00:00:00Z,,H,,,,,,50,50,,,,,Y,Y,N,N,N,N,N,N,MODERATE,MODERATE,2,POSSIBLE,POSSIBLE,,E04,NOT RECOVERED/NOT RESOLVED,N,N,2013-08-24,2013-05-04T00:00:00Z,0,mg
CDISCPILOT01,01-703-1210,1210,703,USA,AE,2013-03-16,2013-09-06,2013-03-16,2013-09-06,2013-09-06T13:30,,,,,,,,,,,,NA,2013-03-08,-8,72,YEARS,>64,F,WHITE,White,NOT HISPANIC OR LATINO,Y,Placebo,Pbo,Placebo,Pbo,Placebo,Placebo,2013-03-16,2013-03-16T00:00:00Z,H,2013-09-06,2013-09-06T23:59:59Z,H,COMPLETED,2013-09-06,,2013-03-16,2013-09-06,175,,,,,1,DISORIENTATION,DISORIENTATION,PSYCHIATRIC DISORDERS,,DISORIENTATION,,,HLT_0299,,HLGT_0307,,PSYCHIATRIC DISORDERS,,2013-04-02,2013-04-02,2013-04-02T00:00:00Z,,H,,,,,,18,18,,,,,Y,,N,N,N,N,N,N,MILD,MILD,1,REMOTE,REMOTE,,E01,NOT RECOVERED/NOT RESOLVED,N,N,2013-04-12,2013-04-02T00:00:00Z,0,mg
CDISCPILOT01,01-703-1210,1210,703,USA,AE,2013-03-16,2013-09-06,2013-03-16,2013-09-06,2013-09-06T13:30,,,,,,,,,,,,NA,2013-03-08,-8,72,YEARS,>64,F,WHITE,White,NOT HISPANIC OR LATINO,Y,Placebo,Pbo,Placebo,Pbo,Placebo,Placebo,2013-03-16,2013-03-16T00:00:00Z,H,2013-09-06,2013-09-06T23:59:59Z,H,COMPLETED,2013-09-06,,2013-03-16,2013-09-06,175,,,,,2,DECREASED APPETITE,DECREASED APPETITE,METABOLISM AND NUTRITION DISORDERS,,DECREASED APPETITE,,,HLT_0574,,HLGT_0231,,METABOLISM AND NUTRITION DISORDERS,,2013-05-04,2013-05-04,2013-05-04T00:00:00Z,,H,,,,,,50,50,,,,,Y,,N,N,N,N,N,N,MILD,MILD,1,POSSIBLE,POSSIBLE,,E04,NOT RECOVERED/NOT RESOLVED,N,N,2013-05-10,2013-05-04T00:00:00Z,0,mg
CDISCPILOT01,01-703-1258,1258,703,USA,AE,2012-07-20,2013-01-21,2012-07-20,2013-01-11,2013-01-28,,,,,,,,,,,,NA,2012-07-10,-10,78,YEARS,>64,F,WHITE,White,NOT HISPANIC OR LATINO,Y,Xanomeline High Dose,Xan_Hi,Xanomeline High Dose,Xan_Hi,Xanomeline High Dose,Xanomeline High Dose,2012-07-20,2012-07-20T00:00:00Z,H,2013-01-11,2013-01-11T23:59:59Z,H,DISCONTINUED,2013-01-21,,2012-07-20,2013-01-25,176,,,,,6,APPLICATION SITE DERMATITIS,APPLICATION SITE DERMATITIS,GENERAL DISORDERS AND ADMINISTRATION SITE CONDITIONS,,APPLICATION SITE RASH,,,HLT_0343,,HLGT_0241,,GENERAL DISORDERS AND ADMINISTRATION SITE CONDITIONS,,2012-09-04,2012-09-04,2012-09-04T00:00:00Z,,H,2013-01-25,2013-01-25,2013-01-25T23:59:59Z,,H,47,47,190,190,144,days,Y,Y,N,N,N,N,N,N,MODERATE,MODERATE,2,PROBABLE,PROBABLE,,E08,NOT RECOVERED/NOT RESOLVED,N,N,2012-09-14,2012-08-01T00:00:00Z,,
CDISCPILOT01,01-703-1258,1258,703,USA,AE,2012-07-20,2013-01-21,2012-07-20,2013-01-11,2013-01-28,,,,,,,,,,,,NA,2012-07-10,-10,78,YEARS,>64,F,WHITE,White,NOT HISPANIC OR LATINO,Y,Xanomeline High Dose,Xan_Hi,Xanomeline High Dose,Xan_Hi,Xanomeline High Dose,Xanomeline High Dose,2012-07-20,2012-07-20T00:00:00Z,H,2013-01-11,2013-01-11T23:59:59Z,H,DISCONTINUED,2013-01-21,,2012-07-20,2013-01-25,176,,,,,1,UPPER RESPIRATORY TRACT INFECTION,UPPER RESPIRATORY TRACT INFECTION,INFECTIONS AND INFESTATIONS,,UPPER RESPIRATORY INFECTION,,,HLT_0520,,HLGT_0489,,INFECTIONS AND INFESTATIONS,,2012-08-11,2012-08-11,2012-08-11T00:00:00Z,,H,2012-08-19,2012-08-19,2012-08-19T23:59:59Z,,H,23,23,31,31,9,days,Y,,N,N,N,N,N,N,MILD,MILD,1,NONE,NONE,,E07,NOT RECOVERED/NOT RESOLVED,N,N,2012-08-17,2012-08-01T00:00:00Z,,
CDISCPILOT01,01-703-1258,1258,703,USA,AE,2012-07-20,2013-01-21,2012-07-20,2013-01-11,2013-01-28,,,,,,,,,,,,NA,2012-07-10,-10,78,YEARS,>64,F,WHITE,White,NOT HISPANIC OR LATINO,Y,Xanomeline High Dose,Xan_Hi,Xanomeline High Dose,Xan_Hi,Xanomeline High Dose,Xanomeline High Dose,2012-07-20,2012-07-20T00:00:00Z,H,2013-01-11,2013-01-11T23:59:59Z,H,DISCONTINUED,2013-01-21,,2012-07-20,2013-01-25,176,,,,,3,UPPER RESPIRATORY TRACT INFECTION,UPPER RESPIRATORY TRACT INFECTION,INFECTIONS AND INFESTATIONS,,UPPER RESPIRATORY INFECTION,,,HLT_0520,,HLGT_0489,,INFECTIONS AND INFESTATIONS,,2012-08-11,2012-08-11,2012-08-11T00:00:00Z,,H,2012-08-19,2012-08-19,2012-08-19T23:59:59Z,,H,23,23,31,31,9,days,Y,,N,N,N,N,N,N,MILD,MILD,1,NONE,NONE,,E07,RECOVERED/RESOLVED,N,N,2012-09-04,2012-08-01T00:00:00Z,,
CDISCPILOT01,01-703-1258,1258,703,USA,AE,2012-07-20,2013-01-21,2012-07-20,2013-01-11,2013-01-28,,,,,,,,,,,,NA,2012-07-10,-10,78,YEARS,>64,F,WHITE,White,NOT HISPANIC OR LATINO,Y,Xanomeline High Dose,Xan_Hi,Xanomeline High Dose,Xan_Hi,Xanomeline High Dose,Xanomeline High Dose,2012-07-20,2012-07-20T00:00:00Z,H,2013-01-11,2013-01-11T23:59:59Z,H,DISCONTINUED,2013-01-21,,2012-07-20,2013-01-25,176,,,,,4,APPLICATION SITE DERMATITIS,APPLICATION SITE DERMATITIS,GENERAL DISORDERS AND ADMINISTRATION SITE CONDITIONS,,APPLICATION SITE RASH,,,HLT_0343,,HLGT_0241,,GENERAL DISORDERS AND ADMINISTRATION SITE CONDITIONS,,2012-09-04,2012-09-04,2012-09-04T00:00:00Z,,H,2013-01-25,2013-01-25,2013-01-25T23:59:59Z,,H,47,47,190,190,144,days,Y,,N,N,N,N,N,N,MILD,MILD,1,PROBABLE,PROBABLE,,E08,NOT RECOVERED/NOT RESOLVED,N,N,2012-09-04,2012-08-01T00:00:00Z,,
